Zeit (s) Messreihe #1	Spannung, Ch A (V) Messreihe #1	Spannung, Ch B (V) Messreihe #1
0,000	-0,009	-8,289E-5
0,050	-0,010	-0,001
0,100	-0,009	-3,772E-5
0,150	-0,009	-6,151E-4
0,200	-0,009	2,260E-4
0,250	-0,012	-9,557E-4
0,300	-0,029	4,103E-4
0,350	-0,052	-4,064E-4
0,400	-0,071	4,689E-4
0,450	-0,100	2,687E-4
0,500	-0,134	0,002
0,550	-0,172	0,001
0,600	-0,206	0,003
0,650	-0,221	0,003
0,700	-0,249	0,004
0,750	-0,289	0,003
0,800	-0,307	0,005
0,850	-0,310	0,004
0,900	-0,311	0,005
0,950	-0,311	0,004
1,000	-0,311	0,005
1,050	-0,312	0,004
1,100	-0,321	0,006
1,150	-0,338	0,004
1,200	-0,368	0,006
1,250	-0,380	0,006
1,300	-0,385	0,007
1,350	-0,398	0,006
1,400	-0,409	0,007
1,450	-0,433	0,007
1,500	-0,459	0,008
1,550	-0,472	0,007
1,600	-0,484	0,009
1,650	-0,501	0,008
1,700	-0,529	0,010
1,750	-0,562	0,009
1,800	-0,587	0,011
1,850	-0,605	0,010
1,900	-0,623	0,011
1,950	-0,634	0,010
2,000	-0,652	0,012
2,050	-0,682	0,011
2,100	-0,703	0,013
2,150	-0,729	0,012
2,200	-0,769	0,014
2,250	-0,818	0,014
2,300	-0,839	0,015
2,350	-0,841	0,015
2,400	-0,843	0,016
2,450	-0,856	0,015
2,500	-0,899	0,016
2,550	-0,937	0,016
2,600	-0,962	0,018
2,650	-1,006	0,017
2,700	-1,028	0,019
2,750	-1,030	0,018
2,800	-1,031	0,019
2,850	-1,050	0,018
2,900	-1,065	0,019
2,950	-1,089	0,018
3,000	-1,127	0,020
3,050	-1,144	0,019
3,100	-1,146	0,021
3,150	-1,160	0,019
3,200	-1,178	0,021
3,250	-1,221	0,021
3,300	-1,228	0,022
3,350	-1,229	0,021
3,400	-1,233	0,022
3,450	-1,258	0,021
3,500	-1,267	0,022
3,550	-1,268	0,021
3,600	-1,268	0,022
3,650	-1,271	0,021
3,700	-1,297	0,023
3,750	-1,332	0,022
3,800	-1,351	0,023
3,850	-1,379	0,023
3,900	-1,415	0,024
3,950	-1,426	0,023
4,000	-1,442	0,024
4,050	-1,456	0,024
4,100	-1,460	0,025
4,150	-1,493	0,024
4,200	-1,501	0,026
4,250	-1,501	0,024
4,300	-1,501	0,026
4,350	-1,501	0,025
4,400	-1,502	0,026
4,450	-1,501	0,024
4,500	-1,518	0,026
4,550	-1,565	0,025
4,600	-1,615	0,027
4,650	-1,645	0,026
4,700	-1,664	0,028
4,750	-1,680	0,027
4,800	-1,715	0,028
4,850	-1,749	0,028
4,900	-1,785	0,029
4,950	-1,832	0,028
5,000	-1,863	0,030
5,050	-1,870	0,029
5,100	-1,871	0,030
5,150	-1,881	0,029
5,200	-1,905	0,031
5,250	-1,928	0,030
5,300	-1,955	0,031
5,350	-1,981	0,030
5,400	-2,020	0,032
5,450	-2,046	0,031
5,500	-2,084	0,032
5,550	-2,124	0,032
5,600	-2,149	0,033
5,650	-2,178	0,033
5,700	-2,204	0,034
5,750	-2,217	0,033
5,800	-2,233	0,034
5,850	-2,256	0,033
5,900	-2,285	0,035
5,950	-2,305	0,034
6,000	-2,314	0,035
6,050	-2,338	0,035
6,100	-2,378	0,036
6,150	-2,426	0,035
6,200	-2,459	0,037
6,250	-2,466	0,036
6,300	-2,470	0,037
6,350	-2,504	0,036
6,400	-2,538	0,038
6,450	-2,541	0,036
6,500	-2,566	0,038
6,550	-2,585	0,037
6,600	-2,606	0,038
6,650	-2,680	0,038
6,700	-2,752	0,040
6,750	-2,800	0,039
6,800	-2,828	0,041
6,850	-2,835	0,040
6,900	-2,835	0,041
6,950	-2,835	0,040
7,000	-2,835	0,041
7,050	-2,835	0,040
7,100	-2,843	0,041
7,150	-2,881	0,040
7,200	-2,942	0,042
7,250	-2,985	0,041
7,300	-3,039	0,042
7,350	-3,083	0,042
7,400	-3,100	0,043
7,450	-3,155	0,043
7,500	-3,219	0,044
7,550	-3,250	0,043
7,600	-3,277	0,045
7,650	-3,283	0,044
7,700	-3,285	0,045
7,750	-3,288	0,044
7,800	-3,288	0,045
7,850	-3,288	0,044
7,900	-3,303	0,045
7,950	-3,321	0,044
8,000	-3,371	0,046
8,050	-3,415	0,045
8,100	-3,464	0,046
8,150	-3,511	0,045
8,200	-3,589	0,047
8,250	-3,674	0,047
8,300	-3,686	0,048
8,350	-3,725	0,047
8,400	-3,742	0,049
8,450	-3,762	0,048
8,500	-3,783	0,049
8,550	-3,808	0,048
8,600	-3,830	0,049
8,650	-3,853	0,048
8,700	-3,863	0,050
8,750	-3,889	0,049
8,800	-3,900	0,050
8,850	-3,924	0,049
8,900	-3,947	0,050
8,950	-3,973	0,049
9,000	-4,015	0,051
9,050	-4,028	0,050
9,100	-4,029	0,051
9,150	-4,032	0,050
9,200	-4,033	0,051
9,250	-4,033	0,050
9,300	-4,033	0,051
9,350	-4,033	0,050
9,400	-4,043	0,051
9,450	-4,085	0,050
9,500	-4,106	0,051
9,550	-4,116	0,050
9,600	-4,137	0,051
9,650	-4,138	0,051
9,700	-4,138	0,052
9,750	-4,138	0,050
9,800	-4,138	0,052
9,850	-4,138	0,051
9,900	-4,138	0,052
9,950	-4,181	0,051
10,000	-4,262	0,052
10,050	-4,336	0,052
10,100	-4,401	0,054
10,150	-4,437	0,052
10,200	-4,461	0,054
10,250	-4,483	0,053
10,300	-4,502	0,054
10,350	-4,552	0,053
10,400	-4,583	0,055
10,450	-4,608	0,054
10,500	-4,622	0,055
10,550	-4,622	0,054
10,600	-4,646	0,055
10,650	-4,683	0,054
10,700	-4,684	0,055
10,750	-4,687	0,054
10,800	-4,732	0,056
10,850	-4,797	0,055
10,900	-4,850	0,057
10,950	-4,885	0,056
11,000	-4,930	0,057
11,050	-4,977	0,056
11,100	-4,996	0,057
11,150	-5,022	0,056
11,200	-5,063	0,058
11,250	-5,104	0,057
11,300	-5,133	0,058
11,350	-5,139	0,057
11,400	-5,139	0,058
11,450	-5,139	0,057
11,500	-5,139	0,058
11,550	-5,139	0,057
11,600	-5,139	0,058
11,650	-5,139	0,058
11,700	-5,178	0,059
11,750	-5,240	0,058
11,800	-5,301	0,059
11,850	-5,363	0,059
11,900	-5,383	0,060
11,950	-5,401	0,059
12,000	-5,447	0,060
12,050	-5,494	0,060
12,100	-5,541	0,061
12,150	-5,572	0,060
12,200	-5,573	0,061
12,250	-5,590	0,060
12,300	-5,599	0,061
12,350	-5,630	0,060
12,400	-5,686	0,062
12,450	-5,699	0,061
12,500	-5,699	0,062
12,550	-5,702	0,061
12,600	-5,704	0,062
12,650	-5,704	0,061
12,700	-5,703	0,062
12,750	-5,704	0,061
12,800	-5,708	0,062
12,850	-5,767	0,061
12,900	-5,840	0,062
12,950	-5,887	0,061
13,000	-5,918	0,063
13,050	-5,943	0,062
13,100	-5,981	0,063
13,150	-6,022	0,062
13,200	-6,068	0,064
13,250	-6,126	0,063
13,300	-6,161	0,064
13,350	-6,188	0,063
13,400	-6,228	0,064
13,450	-6,243	0,064
13,500	-6,258	0,065
13,550	-6,268	0,064
13,600	-6,290	0,065
13,650	-6,340	0,064
13,700	-6,381	0,065
13,750	-6,436	0,065
13,800	-6,467	0,066
13,850	-6,475	0,065
13,900	-6,477	0,066
13,950	-6,477	0,065
14,000	-6,477	0,066
14,050	-6,477	0,065
14,100	-6,477	0,066
14,150	-6,477	0,065
14,200	-6,479	0,066
14,250	-6,521	0,065
14,300	-6,588	0,066
14,350	-6,625	0,065
14,400	-6,644	0,067
14,450	-6,653	0,066
14,500	-6,658	0,067
14,550	-6,660	0,066
14,600	-6,662	0,067
14,650	-6,662	0,066
14,700	-6,663	0,067
14,750	-6,663	0,066
14,800	-6,664	0,067
14,850	-6,664	0,066
14,900	-6,664	0,067
14,950	-6,664	0,066
15,000	-6,664	0,067
15,050	-6,664	0,066
15,100	-6,665	0,067
15,150	-6,664	0,065
15,200	-6,664	0,067
15,250	-6,660	0,066
15,300	-6,616	0,066
15,350	-6,564	0,065
15,400	-6,538	0,066
15,450	-6,520	0,065
15,500	-6,488	0,066
15,550	-6,424	0,065
15,600	-6,408	0,066
15,650	-6,399	0,065
15,700	-6,397	0,066
15,750	-6,383	0,064
15,800	-6,354	0,065
15,850	-6,347	0,065
15,900	-6,346	0,066
15,950	-6,346	0,064
16,000	-6,338	0,065
16,050	-6,337	0,064
16,100	-6,337	0,065
16,150	-6,328	0,064
16,200	-6,319	0,065
16,250	-6,318	0,064
16,300	-6,318	0,065
16,350	-6,308	0,064
16,400	-6,295	0,065
16,450	-6,283	0,064
16,500	-6,278	0,065
16,550	-6,275	0,064
16,600	-6,252	0,065
16,650	-6,243	0,064
16,700	-6,233	0,065
16,750	-6,216	0,064
16,800	-6,193	0,065
16,850	-6,177	0,064
16,900	-6,157	0,065
16,950	-6,136	0,064
17,000	-6,133	0,065
17,050	-6,133	0,064
17,100	-6,133	0,065
17,150	-6,133	0,063
17,200	-6,123	0,064
17,250	-6,107	0,063
17,300	-6,094	0,064
17,350	-6,080	0,063
17,400	-6,080	0,064
17,450	-6,079	0,063
17,500	-6,071	0,064
17,550	-6,057	0,063
17,600	-6,053	0,064
17,650	-6,030	0,063
17,700	-6,001	0,064
17,750	-5,982	0,063
17,800	-5,982	0,064
17,850	-5,982	0,063
17,900	-5,982	0,064
17,950	-5,982	0,063
18,000	-5,982	0,064
18,050	-5,944	0,063
18,100	-5,893	0,063
18,150	-5,885	0,062
18,200	-5,884	0,063
18,250	-5,884	0,062
18,300	-5,873	0,063
18,350	-5,841	0,063
18,400	-5,828	0,063
18,450	-5,819	0,062
18,500	-5,812	0,063
18,550	-5,810	0,062
18,600	-5,811	0,063
18,650	-5,810	0,062
18,700	-5,802	0,063
18,750	-5,778	0,062
18,800	-5,764	0,063
18,850	-5,748	0,062
18,900	-5,737	0,063
18,950	-5,719	0,061
19,000	-5,709	0,063
19,050	-5,702	0,061
19,100	-5,674	0,063
19,150	-5,662	0,061
19,200	-5,638	0,062
19,250	-5,627	0,061
19,300	-5,597	0,062
19,350	-5,567	0,061
19,400	-5,537	0,062
19,450	-5,532	0,061
19,500	-5,499	0,062
19,550	-5,483	0,061
19,600	-5,452	0,061
19,650	-5,428	0,060
19,700	-5,409	0,061
19,750	-5,391	0,060
19,800	-5,382	0,061
19,850	-5,382	0,060
19,900	-5,361	0,061
19,950	-5,335	0,060
20,000	-5,325	0,061
20,050	-5,325	0,060
20,100	-5,308	0,061
20,150	-5,282	0,059
20,200	-5,277	0,061
20,250	-5,277	0,059
20,300	-5,276	0,061
20,350	-5,269	0,059
20,400	-5,254	0,061
20,450	-5,248	0,059
20,500	-5,222	0,061
20,550	-5,193	0,059
20,600	-5,188	0,060
20,650	-5,185	0,059
20,700	-5,168	0,060
20,750	-5,166	0,059
20,800	-5,166	0,060
20,850	-5,166	0,059
20,900	-5,165	0,060
20,950	-5,162	0,059
21,000	-5,161	0,060
21,050	-5,117	0,059
21,100	-5,061	0,060
21,150	-5,023	0,058
21,200	-5,005	0,059
21,250	-4,994	0,058
21,300	-4,958	0,059
21,350	-4,918	0,057
21,400	-4,900	0,059
21,450	-4,883	0,058
21,500	-4,858	0,058
21,550	-4,827	0,057
21,600	-4,803	0,058
21,650	-4,784	0,057
21,700	-4,779	0,058
21,750	-4,762	0,057
21,800	-4,748	0,058
21,850	-4,738	0,057
21,900	-4,720	0,058
21,950	-4,719	0,056
22,000	-4,712	0,058
22,050	-4,702	0,056
22,100	-4,675	0,057
22,150	-4,643	0,056
22,200	-4,636	0,057
22,250	-4,617	0,056
22,300	-4,590	0,057
22,350	-4,573	0,056
22,400	-4,527	0,057
22,450	-4,492	0,055
22,500	-4,471	0,056
22,550	-4,468	0,055
22,600	-4,436	0,056
22,650	-4,407	0,055
22,700	-4,404	0,056
22,750	-4,387	0,054
22,800	-4,367	0,056
22,850	-4,361	0,054
22,900	-4,359	0,055
22,950	-4,357	0,054
23,000	-4,331	0,055
23,050	-4,316	0,054
23,100	-4,314	0,055
23,150	-4,305	0,054
23,200	-4,292	0,055
23,250	-4,268	0,054
23,300	-4,255	0,055
23,350	-4,228	0,054
23,400	-4,203	0,055
23,450	-4,200	0,054
23,500	-4,196	0,055
23,550	-4,191	0,054
23,600	-4,189	0,055
23,650	-4,173	0,054
23,700	-4,170	0,055
23,750	-4,130	0,053
23,800	-4,087	0,054
23,850	-4,072	0,053
23,900	-4,069	0,054
23,950	-4,037	0,053
24,000	-4,023	0,054
24,050	-3,974	0,052
24,100	-3,939	0,053
24,150	-3,916	0,052
24,200	-3,909	0,053
24,250	-3,901	0,052
24,300	-3,886	0,053
24,350	-3,876	0,052
24,400	-3,864	0,053
24,450	-3,837	0,052
24,500	-3,834	0,052
24,550	-3,811	0,051
24,600	-3,757	0,052
24,650	-3,731	0,051
24,700	-3,719	0,052
24,750	-3,696	0,050
24,800	-3,686	0,052
24,850	-3,682	0,050
24,900	-3,671	0,051
24,950	-3,651	0,050
25,000	-3,626	0,051
25,050	-3,607	0,049
25,100	-3,597	0,051
25,150	-3,570	0,049
25,200	-3,541	0,050
25,250	-3,514	0,049
25,300	-3,499	0,050
25,350	-3,470	0,049
25,400	-3,452	0,049
25,450	-3,430	0,048
25,500	-3,404	0,049
25,550	-3,391	0,048
25,600	-3,387	0,049
25,650	-3,375	0,048
25,700	-3,364	0,049
25,750	-3,360	0,048
25,800	-3,346	0,049
25,850	-3,338	0,048
25,900	-3,326	0,049
25,950	-3,296	0,048
26,000	-3,272	0,048
26,050	-3,232	0,047
26,100	-3,190	0,048
26,150	-3,159	0,046
26,200	-3,136	0,047
26,250	-3,130	0,046
26,300	-3,130	0,047
26,350	-3,130	0,046
26,400	-3,130	0,047
26,450	-3,117	0,046
26,500	-3,072	0,047
26,550	-3,045	0,046
26,600	-3,028	0,047
26,650	-2,996	0,045
26,700	-2,972	0,046
26,750	-2,963	0,045
26,800	-2,951	0,046
26,850	-2,950	0,045
26,900	-2,950	0,046
26,950	-2,950	0,045
27,000	-2,950	0,046
27,050	-2,950	0,045
27,100	-2,950	0,046
27,150	-2,950	0,045
27,200	-2,910	0,046
27,250	-2,843	0,044
27,300	-2,812	0,045
27,350	-2,810	0,044
27,400	-2,808	0,045
27,450	-2,782	0,044
27,500	-2,736	0,044
27,550	-2,717	0,043
27,600	-2,698	0,044
27,650	-2,692	0,043
27,700	-2,686	0,044
27,750	-2,666	0,042
27,800	-2,657	0,043
27,850	-2,656	0,042
27,900	-2,638	0,043
27,950	-2,620	0,042
28,000	-2,617	0,043
28,050	-2,588	0,042
28,100	-2,582	0,043
28,150	-2,581	0,041
28,200	-2,571	0,043
28,250	-2,563	0,042
28,300	-2,563	0,043
28,350	-2,563	0,042
28,400	-2,550	0,043
28,450	-2,513	0,041
28,500	-2,506	0,042
28,550	-2,501	0,041
28,600	-2,476	0,042
28,650	-2,476	0,041
28,700	-2,476	0,042
28,750	-2,476	0,041
28,800	-2,476	0,042
28,850	-2,475	0,041
28,900	-2,476	0,042
28,950	-2,475	0,041
29,000	-2,470	0,042
29,050	-2,425	0,041
29,100	-2,386	0,041
29,150	-2,384	0,040
29,200	-2,383	0,041
29,250	-2,383	0,040
29,300	-2,380	0,041
29,350	-2,354	0,040
29,400	-2,352	0,041
29,450	-2,345	0,040
29,500	-2,318	0,041
29,550	-2,316	0,040
29,600	-2,300	0,041
29,650	-2,281	0,039
29,700	-2,271	0,040
29,750	-2,233	0,038
29,800	-2,224	0,040
29,850	-2,216	0,038
29,900	-2,198	0,039
29,950	-2,197	0,038
30,000	-2,197	0,039
30,050	-2,197	0,038
30,100	-2,197	0,040
30,150	-2,197	0,038
30,200	-2,197	0,040
30,250	-2,189	0,039
30,300	-2,119	0,039
30,350	-2,052	0,037
30,400	-2,039	0,038
30,450	-2,039	0,037
30,500	-2,039	0,038
30,550	-2,038	0,037
30,600	-2,015	0,038
30,650	-1,968	0,036
30,700	-1,920	0,037
30,750	-1,911	0,036
30,800	-1,910	0,037
30,850	-1,911	0,035
30,900	-1,910	0,036
30,950	-1,910	0,035
31,000	-1,894	0,036
31,050	-1,884	0,035
31,100	-1,884	0,036
31,150	-1,873	0,035
31,200	-1,836	0,036
31,250	-1,816	0,034
31,300	-1,796	0,036
31,350	-1,772	0,034
31,400	-1,770	0,035
31,450	-1,770	0,034
31,500	-1,770	0,035
31,550	-1,758	0,034
31,600	-1,735	0,035
31,650	-1,724	0,033
31,700	-1,673	0,034
31,750	-1,628	0,032
31,800	-1,575	0,033
31,850	-1,559	0,032
31,900	-1,559	0,033
31,950	-1,559	0,032
32,000	-1,559	0,033
32,050	-1,558	0,032
32,100	-1,557	0,033
32,150	-1,558	0,031
32,200	-1,559	0,033
32,250	-1,556	0,032
32,300	-1,555	0,033
32,350	-1,556	0,032
32,400	-1,547	0,033
32,450	-1,534	0,032
32,500	-1,504	0,032
32,550	-1,462	0,031
32,600	-1,447	0,031
32,650	-1,427	0,030
32,700	-1,407	0,031
32,750	-1,359	0,030
32,800	-1,311	0,030
32,850	-1,271	0,029
32,900	-1,240	0,029
32,950	-1,205	0,028
33,000	-1,161	0,028
33,050	-1,099	0,026
33,100	-1,043	0,026
33,150	-1,020	0,025
33,200	-1,003	0,026
33,250	-0,995	0,024
33,300	-0,988	0,026
33,350	-0,987	0,024
33,400	-0,987	0,025
33,450	-0,987	0,024
33,500	-0,987	0,025
33,550	-0,969	0,024
33,600	-0,884	0,024
33,650	-0,784	0,021
33,700	-0,716	0,021
33,750	-0,686	0,019
33,800	-0,672	0,020
33,850	-0,659	0,019
33,900	-0,648	0,020
33,950	-0,629	0,019
34,000	-0,603	0,019
34,050	-0,568	0,018
34,100	-0,551	0,018
34,150	-0,533	0,017
34,200	-0,517	0,017
34,250	-0,490	0,016
34,300	-0,458	0,016
34,350	-0,425	0,014
34,400	-0,391	0,015
34,450	-0,369	0,013
34,500	-0,335	0,014
34,550	-0,308	0,012
34,600	-0,277	0,012
34,650	-0,257	0,010
34,700	-0,232	0,010
34,750	-0,214	0,009
34,800	-0,179	0,009
34,850	-0,138	0,007
34,900	-0,108	0,006
34,950	-0,099	0,005
35,000	-0,095	0,006
35,050	-0,094	0,004
35,100	-0,093	0,005
35,150	-0,093	0,004
35,200	-0,084	0,005
35,250	-0,036	0,003
35,300	-0,021	0,003
35,350	-0,016	8,375E-4
35,400	-0,013	0,002
35,450	-0,012	5,348E-4
35,500	-0,011	0,001
35,550	-0,011	2,247E-4
35,600	-0,009	0,001
35,650	-0,007	2,504E-4
35,700	-0,006	0,002
35,750	-0,007	4,285E-5
35,800	-0,008	9,340E-4
35,850	-0,009	3,712E-4
35,900	-0,009	0,001
35,950	-0,009	2,699E-4
36,000	-0,007	0,001
36,050	-0,006	7,336E-5
36,100	-0,006	9,047E-4
36,150	-0,006	6,726E-5
36,200	-0,005	9,047E-4
36,250	-0,005	1,539E-4
36,300	-0,005	9,034E-4
36,350	-0,005	1,930E-4
36,400	-0,005	7,240E-4
36,450	-0,006	-1,927E-4
36,500	-0,005	0,001
36,550	0,002	-2,855E-4
36,600	0,008	1,783E-4
36,650	0,009	-9,398E-4
36,700	0,010	1,246E-4
36,750	0,010	-8,641E-4
36,800	0,011	2,028E-4
36,850	0,011	-7,665E-4
36,900	0,011	1,355E-5
36,950	0,011	-7,946E-4
37,000	0,011	-3,942E-4
37,050	0,011	-0,001
37,100	0,011	-8,655E-5
37,150	0,020	-0,001
37,200	0,047	-0,001
37,250	0,067	-0,003
37,300	0,095	-0,005
37,350	0,115	-0,007
37,400	0,140	-0,009
37,450	0,165	-0,014
37,500	0,180	-0,017
37,550	0,192	-0,022
37,600	0,204	-0,027
37,650	0,214	-0,035
37,700	0,221	-0,042
37,750	0,227	-0,052
37,800	0,235	-0,062
37,850	0,240	-0,076
37,900	0,250	-0,091
37,950	0,255	-0,110
38,000	0,261	-0,129
38,050	0,264	-0,151
38,100	0,267	-0,171
38,150	0,269	-0,194
38,200	0,272	-0,215
38,250	0,274	-0,239
38,300	0,276	-0,261
38,350	0,277	-0,284
38,400	0,279	-0,306
38,450	0,280	-0,329
38,500	0,281	-0,351
38,550	0,289	-0,376
38,600	0,292	-0,402
38,650	0,293	-0,430
38,700	0,294	-0,456
38,750	0,295	-0,484
38,800	0,297	-0,510
38,850	0,299	-0,538
38,900	0,302	-0,565
38,950	0,306	-0,594
39,000	0,310	-0,622
39,050	0,315	-0,651
39,100	0,323	-0,681
39,150	0,330	-0,713
39,200	0,342	-0,743
39,250	0,363	-0,773
39,300	0,411	-0,800
39,350	0,533	-0,824
39,400	0,681	-0,838
39,450	0,782	-0,846
39,500	0,836	-0,848
39,550	0,859	-0,850
39,600	0,871	-0,850
39,650	0,887	-0,851
39,700	0,895	-0,851
39,750	0,905	-0,852
39,800	0,911	-0,852
39,850	0,913	-0,853
39,900	0,918	-0,852
39,950	0,920	-0,853
40,000	0,926	-0,852
40,050	0,931	-0,853
40,100	0,939	-0,853
40,150	0,942	-0,854
40,200	0,952	-0,853
40,250	0,966	-0,854
40,300	0,977	-0,854
40,350	0,988	-0,855
40,400	1,000	-0,854
40,450	1,009	-0,856
40,500	1,015	-0,855
40,550	1,017	-0,856
40,600	1,018	-0,856
40,650	1,018	-0,856
40,700	1,018	-0,856
40,750	1,019	-0,857
40,800	1,022	-0,856
40,850	1,026	-0,857
40,900	1,045	-0,856
40,950	1,068	-0,858
41,000	1,106	-0,858
41,050	1,133	-0,860
41,100	1,142	-0,859
41,150	1,145	-0,860
41,200	1,168	-0,860
41,250	1,192	-0,861
41,300	1,202	-0,861
41,350	1,205	-0,862
41,400	1,211	-0,861
41,450	1,218	-0,862
41,500	1,224	-0,861
41,550	1,239	-0,863
41,600	1,262	-0,862
41,650	1,271	-0,863
41,700	1,282	-0,863
41,750	1,296	-0,864
41,800	1,315	-0,864
41,850	1,330	-0,865
41,900	1,344	-0,865
41,950	1,358	-0,865
42,000	1,377	-0,865
42,050	1,399	-0,867
42,100	1,419	-0,866
42,150	1,435	-0,867
42,200	1,442	-0,867
42,250	1,454	-0,868
42,300	1,463	-0,867
42,350	1,468	-0,868
42,400	1,482	-0,868
42,450	1,500	-0,869
42,500	1,514	-0,868
42,550	1,535	-0,869
42,600	1,551	-0,869
42,650	1,575	-0,870
42,700	1,603	-0,870
42,750	1,608	-0,871
42,800	1,627	-0,870
42,850	1,658	-0,872
42,900	1,680	-0,871
42,950	1,702	-0,873
43,000	1,711	-0,872
43,050	1,721	-0,873
43,100	1,740	-0,873
43,150	1,745	-0,874
43,200	1,755	-0,873
43,250	1,796	-0,874
43,300	1,829	-0,874
43,350	1,841	-0,875
43,400	1,850	-0,875
43,450	1,852	-0,875
43,500	1,869	-0,875
43,550	1,901	-0,876
43,600	1,916	-0,876
43,650	1,931	-0,877
43,700	1,940	-0,876
43,750	1,941	-0,877
43,800	1,941	-0,877
43,850	1,941	-0,877
43,900	1,941	-0,876
43,950	1,941	-0,877
44,000	1,941	-0,877
44,050	1,942	-0,877
44,100	1,946	-0,876
44,150	1,948	-0,877
44,200	1,960	-0,877
44,250	1,971	-0,877
44,300	1,987	-0,877
44,350	2,012	-0,878
44,400	2,015	-0,878
44,450	2,017	-0,878
44,500	2,036	-0,878
44,550	2,049	-0,878
44,600	2,076	-0,878
44,650	2,106	-0,879
44,700	2,144	-0,879
44,750	2,185	-0,880
44,800	2,199	-0,880
44,850	2,214	-0,881
44,900	2,261	-0,881
44,950	2,282	-0,882
45,000	2,285	-0,881
45,050	2,304	-0,882
45,100	2,325	-0,882
45,150	2,328	-0,882
45,200	2,345	-0,882
45,250	2,362	-0,883
45,300	2,364	-0,883
45,350	2,371	-0,883
45,400	2,394	-0,883
45,450	2,405	-0,884
45,500	2,439	-0,883
45,550	2,487	-0,884
45,600	2,519	-0,885
45,650	2,570	-0,885
45,700	2,610	-0,886
45,750	2,623	-0,886
45,800	2,657	-0,886
45,850	2,684	-0,887
45,900	2,691	-0,887
45,950	2,693	-0,887
46,000	2,703	-0,887
46,050	2,715	-0,887
46,100	2,744	-0,887
46,150	2,775	-0,888
46,200	2,799	-0,888
46,250	2,817	-0,888
46,300	2,820	-0,888
46,350	2,835	-0,888
46,400	2,856	-0,889
46,450	2,877	-0,889
46,500	2,917	-0,889
46,550	2,937	-0,890
46,600	2,940	-0,890
46,650	2,957	-0,890
46,700	2,994	-0,890
46,750	3,028	-0,891
46,800	3,047	-0,891
46,850	3,049	-0,891
46,900	3,070	-0,891
46,950	3,105	-0,892
47,000	3,131	-0,892
47,050	3,158	-0,892
47,100	3,181	-0,892
47,150	3,223	-0,893
47,200	3,260	-0,893
47,250	3,267	-0,894
47,300	3,286	-0,893
47,350	3,295	-0,894
47,400	3,296	-0,893
47,450	3,297	-0,894
47,500	3,305	-0,893
47,550	3,319	-0,894
47,600	3,326	-0,894
47,650	3,326	-0,894
47,700	3,326	-0,894
47,750	3,326	-0,894
47,800	3,326	-0,894
47,850	3,326	-0,894
47,900	3,326	-0,894
47,950	3,326	-0,894
48,000	3,340	-0,894
48,050	3,379	-0,895
48,100	3,401	-0,894
48,150	3,416	-0,895
48,200	3,443	-0,895
48,250	3,470	-0,895
48,300	3,500	-0,895
48,350	3,517	-0,896
48,400	3,547	-0,896
48,450	3,593	-0,896
48,500	3,627	-0,897
48,550	3,646	-0,897
48,600	3,676	-0,897
48,650	3,716	-0,898
48,700	3,751	-0,898
48,750	3,762	-0,898
48,800	3,762	-0,898
48,850	3,772	-0,898
48,900	3,798	-0,898
48,950	3,818	-0,899
49,000	3,829	-0,899
49,050	3,831	-0,899
49,100	3,832	-0,899
49,150	3,831	-0,899
49,200	3,832	-0,899
49,250	3,831	-0,899
49,300	3,832	-0,899
49,350	3,832	-0,899
49,400	3,858	-0,899
49,450	3,891	-0,899
49,500	3,920	-0,900
49,550	3,985	-0,900
49,600	4,057	-0,901
49,650	4,114	-0,901
49,700	4,130	-0,901
49,750	4,138	-0,901
49,800	4,167	-0,901
49,850	4,191	-0,902
49,900	4,228	-0,902
49,950	4,261	-0,902
50,000	4,288	-0,902
50,050	4,294	-0,902
50,100	4,300	-0,903
50,150	4,327	-0,903
50,200	4,353	-0,903
50,250	4,366	-0,903
50,300	4,384	-0,903
50,350	4,389	-0,904
50,400	4,390	-0,903
50,450	4,390	-0,903
50,500	4,390	-0,903
50,550	4,390	-0,903
50,600	4,391	-0,903
50,650	4,390	-0,903
50,700	4,403	-0,903
50,750	4,455	-0,904
50,800	4,511	-0,904
50,850	4,579	-0,905
50,900	4,655	-0,905
50,950	4,690	-0,906
51,000	4,723	-0,906
51,050	4,754	-0,906
51,100	4,764	-0,906
51,150	4,768	-0,906
51,200	4,768	-0,906
51,250	4,768	-0,906
51,300	4,768	-0,906
51,350	4,768	-0,906
51,400	4,798	-0,906
51,450	4,850	-0,907
51,500	4,877	-0,907
51,550	4,911	-0,907
51,600	4,950	-0,907
51,650	4,954	-0,907
51,700	4,973	-0,907
51,750	4,990	-0,908
51,800	5,011	-0,908
51,850	5,055	-0,908
51,900	5,087	-0,908
51,950	5,118	-0,909
52,000	5,153	-0,909
52,050	5,165	-0,909
52,100	5,182	-0,909
52,150	5,189	-0,909
52,200	5,214	-0,909
52,250	5,261	-0,909
52,300	5,286	-0,910
52,350	5,304	-0,910
52,400	5,319	-0,910
52,450	5,320	-0,910
52,500	5,320	-0,910
52,550	5,320	-0,910
52,600	5,320	-0,910
52,650	5,320	-0,910
52,700	5,320	-0,910
52,750	5,348	-0,910
52,800	5,406	-0,911
52,850	5,466	-0,911
52,900	5,514	-0,911
52,950	5,552	-0,911
53,000	5,616	-0,912
53,050	5,625	-0,912
53,100	5,629	-0,912
53,150	5,629	-0,912
53,200	5,629	-0,912
53,250	5,628	-0,912
53,300	5,629	-0,912
53,350	5,629	-0,912
53,400	5,649	-0,912
53,450	5,682	-0,912
53,500	5,717	-0,912
53,550	5,741	-0,913
53,600	5,792	-0,913
53,650	5,850	-0,913
53,700	5,897	-0,913
53,750	5,930	-0,914
53,800	5,956	-0,913
53,850	5,962	-0,914
53,900	5,963	-0,914
53,950	5,963	-0,914
54,000	5,963	-0,914
54,050	5,963	-0,914
54,100	5,971	-0,914
54,150	5,978	-0,914
54,200	6,030	-0,914
54,250	6,102	-0,914
54,300	6,171	-0,915
54,350	6,222	-0,915
54,400	6,267	-0,916
54,450	6,293	-0,916
54,500	6,319	-0,916
54,550	6,377	-0,916
54,600	6,442	-0,916
54,650	6,504	-0,917
54,700	6,553	-0,917
54,750	6,579	-0,917
54,800	6,591	-0,917
54,850	6,620	-0,917
54,900	6,637	-0,918
54,950	6,650	-0,917
55,000	6,657	-0,918
55,050	6,661	-0,918
55,100	6,664	-0,918
55,150	6,665	-0,917
55,200	6,665	-0,918
55,250	6,665	-0,918
55,300	6,666	-0,918
55,350	6,666	-0,918
55,400	6,666	-0,917
55,450	6,666	-0,917
55,500	6,666	-0,918
55,550	6,666	-0,917
55,600	6,667	-0,918
55,650	6,666	-0,918
55,700	6,667	-0,918
55,750	6,667	-0,917
55,800	6,667	-0,918
55,850	6,667	-0,918
55,900	6,667	-0,918
55,950	6,667	-0,917
56,000	6,667	-0,917
56,050	6,667	-0,917
56,100	6,667	-0,917
56,150	6,667	-0,917
56,200	6,667	-0,918
56,250	6,667	-0,917
56,300	6,667	-0,918
56,350	6,667	-0,917
56,400	6,667	-0,917
56,450	6,667	-0,917
56,500	6,667	-0,917
56,550	6,667	-0,917
56,600	6,667	-0,918
56,650	6,667	-0,917
56,700	6,667	-0,917
56,750	6,667	-0,917
56,800	6,667	-0,917
56,850	6,668	-0,917
56,900	6,667	-0,918
56,950	6,667	-0,917
57,000	6,667	-0,918
57,050	6,667	-0,917
57,100	6,668	-0,917
57,150	6,667	-0,917
57,200	6,668	-0,917
57,250	6,667	-0,917
57,300	6,667	-0,918
57,350	6,667	-0,918
57,400	6,667	-0,918
57,450	6,641	-0,917
57,500	6,572	-0,917
57,550	6,541	-0,917
57,600	6,537	-0,917
57,650	6,516	-0,917
57,700	6,479	-0,917
57,750	6,467	-0,917
57,800	6,451	-0,917
57,850	6,442	-0,916
57,900	6,428	-0,916
57,950	6,417	-0,916
58,000	6,360	-0,916
58,050	6,320	-0,916
58,100	6,290	-0,916
58,150	6,281	-0,916
58,200	6,280	-0,916
58,250	6,258	-0,915
58,300	6,234	-0,916
58,350	6,210	-0,915
58,400	6,183	-0,915
58,450	6,171	-0,915
58,500	6,147	-0,915
58,550	6,125	-0,915
58,600	6,120	-0,915
58,650	6,117	-0,915
58,700	6,095	-0,915
58,750	6,081	-0,915
58,800	6,078	-0,915
58,850	6,074	-0,915
58,900	6,044	-0,915
58,950	6,021	-0,914
59,000	6,021	-0,914
59,050	6,021	-0,914
59,100	6,021	-0,914
59,150	6,021	-0,914
59,200	6,021	-0,915
59,250	6,021	-0,914
59,300	6,021	-0,914
59,350	5,998	-0,914
59,400	5,955	-0,914
59,450	5,930	-0,914
59,500	5,929	-0,915
59,550	5,910	-0,914
59,600	5,859	-0,914
59,650	5,831	-0,913
59,700	5,814	-0,914
59,750	5,804	-0,913
59,800	5,780	-0,913
59,850	5,765	-0,913
59,900	5,763	-0,913
59,950	5,742	-0,913
60,000	5,729	-0,913
60,050	5,707	-0,913
60,100	5,681	-0,913
60,150	5,666	-0,912
60,200	5,659	-0,913
60,250	5,626	-0,912
60,300	5,608	-0,912
60,350	5,599	-0,912
60,400	5,580	-0,913
60,450	5,548	-0,912
60,500	5,520	-0,912
60,550	5,489	-0,912
60,600	5,461	-0,912
60,650	5,454	-0,911
60,700	5,435	-0,912
60,750	5,425	-0,911
60,800	5,404	-0,912
60,850	5,359	-0,911
60,900	5,292	-0,911
60,950	5,253	-0,910
61,000	5,212	-0,911
61,050	5,180	-0,910
61,100	5,175	-0,911
61,150	5,133	-0,910
61,200	5,058	-0,910
61,250	5,046	-0,909
61,300	5,046	-0,910
61,350	5,046	-0,909
61,400	5,046	-0,910
61,450	5,019	-0,909
61,500	4,964	-0,909
61,550	4,943	-0,909
61,600	4,925	-0,909
61,650	4,903	-0,908
61,700	4,875	-0,909
61,750	4,835	-0,908
61,800	4,831	-0,908
61,850	4,830	-0,908
61,900	4,830	-0,908
61,950	4,830	-0,908
62,000	4,830	-0,908
62,050	4,830	-0,908
62,100	4,828	-0,908
62,150	4,780	-0,908
62,200	4,747	-0,908
62,250	4,745	-0,908
62,300	4,716	-0,908
62,350	4,671	-0,907
62,400	4,624	-0,907
62,450	4,606	-0,907
62,500	4,605	-0,907
62,550	4,605	-0,907
62,600	4,605	-0,907
62,650	4,603	-0,907
62,700	4,592	-0,907
62,750	4,591	-0,906
62,800	4,566	-0,907
62,850	4,549	-0,906
62,900	4,533	-0,907
62,950	4,508	-0,906
63,000	4,476	-0,906
63,050	4,453	-0,906
63,100	4,422	-0,906
63,150	4,404	-0,905
63,200	4,393	-0,906
63,250	4,375	-0,905
63,300	4,373	-0,905
63,350	4,351	-0,905
63,400	4,330	-0,905
63,450	4,328	-0,905
63,500	4,297	-0,905
63,550	4,261	-0,905
63,600	4,233	-0,905
63,650	4,204	-0,904
63,700	4,167	-0,904
63,750	4,135	-0,904
63,800	4,107	-0,904
63,850	4,054	-0,903
63,900	4,027	-0,903
63,950	4,000	-0,903
64,000	3,977	-0,903
64,050	3,956	-0,903
64,100	3,929	-0,903
64,150	3,899	-0,902
64,200	3,864	-0,902
64,250	3,837	-0,901
64,300	3,810	-0,902
64,350	3,793	-0,901
64,400	3,783	-0,902
64,450	3,766	-0,901
64,500	3,748	-0,901
64,550	3,712	-0,901
64,600	3,680	-0,901
64,650	3,652	-0,900
64,700	3,614	-0,901
64,750	3,582	-0,900
64,800	3,572	-0,900
64,850	3,572	-0,900
64,900	3,572	-0,900
64,950	3,560	-0,900
65,000	3,550	-0,900
65,050	3,535	-0,899
65,100	3,491	-0,900
65,150	3,456	-0,899
65,200	3,413	-0,899
65,250	3,357	-0,898
65,300	3,301	-0,898
65,350	3,255	-0,897
65,400	3,230	-0,898
65,450	3,225	-0,897
65,500	3,212	-0,898
65,550	3,196	-0,897
65,600	3,194	-0,897
65,650	3,194	-0,897
65,700	3,183	-0,897
65,750	3,180	-0,897
65,800	3,181	-0,897
65,850	3,180	-0,897
65,900	3,180	-0,897
65,950	3,180	-0,897
66,000	3,180	-0,897
66,050	3,180	-0,896
66,100	3,181	-0,897
66,150	3,171	-0,896
66,200	3,144	-0,897
66,250	3,141	-0,897
66,300	3,141	-0,897
66,350	3,119	-0,896
66,400	3,075	-0,896
66,450	3,038	-0,895
66,500	3,007	-0,896
66,550	2,951	-0,895
66,600	2,907	-0,895
66,650	2,873	-0,894
66,700	2,831	-0,895
66,750	2,797	-0,893
66,800	2,792	-0,894
66,850	2,791	-0,893
66,900	2,791	-0,894
66,950	2,791	-0,893
67,000	2,784	-0,894
67,050	2,765	-0,893
67,100	2,761	-0,894
67,150	2,719	-0,893
67,200	2,712	-0,893
67,250	2,692	-0,892
67,300	2,677	-0,893
67,350	2,676	-0,892
67,400	2,659	-0,893
67,450	2,650	-0,892
67,500	2,615	-0,893
67,550	2,574	-0,891
67,600	2,565	-0,892
67,650	2,537	-0,891
67,700	2,536	-0,892
67,750	2,535	-0,891
67,800	2,536	-0,891
67,850	2,536	-0,891
67,900	2,535	-0,892
67,950	2,535	-0,891
68,000	2,530	-0,892
68,050	2,455	-0,890
68,100	2,329	-0,890
68,150	2,239	-0,888
68,200	2,192	-0,889
68,250	2,189	-0,888
68,300	2,189	-0,888
68,350	2,189	-0,888
68,400	2,189	-0,888
68,450	2,188	-0,888
68,500	2,159	-0,888
68,550	2,131	-0,887
68,600	2,127	-0,888
68,650	2,126	-0,887
68,700	2,109	-0,887
68,750	2,106	-0,887
68,800	2,093	-0,888
68,850	2,090	-0,887
68,900	2,051	-0,887
68,950	2,043	-0,886
69,000	2,025	-0,887
69,050	1,989	-0,886
69,100	1,981	-0,886
69,150	1,969	-0,886
69,200	1,939	-0,886
69,250	1,922	-0,885
69,300	1,881	-0,886
69,350	1,865	-0,884
69,400	1,824	-0,885
69,450	1,788	-0,883
69,500	1,771	-0,884
69,550	1,756	-0,883
69,600	1,753	-0,884
69,650	1,752	-0,883
69,700	1,752	-0,884
69,750	1,752	-0,883
69,800	1,752	-0,884
69,850	1,752	-0,883
69,900	1,693	-0,884
69,950	1,624	-0,882
70,000	1,588	-0,882
70,050	1,551	-0,881
70,100	1,490	-0,881
70,150	1,433	-0,880
70,200	1,376	-0,880
70,250	1,354	-0,879
70,300	1,353	-0,880
70,350	1,352	-0,878
70,400	1,346	-0,879
70,450	1,300	-0,878
70,500	1,257	-0,878
70,550	1,244	-0,877
70,600	1,244	-0,878
70,650	1,236	-0,877
70,700	1,212	-0,877
70,750	1,177	-0,876
70,800	1,160	-0,877
70,850	1,131	-0,876
70,900	1,104	-0,876
70,950	1,078	-0,875
71,000	1,053	-0,876
71,050	1,040	-0,874
71,100	1,013	-0,875
71,150	0,969	-0,873
71,200	0,906	-0,874
71,250	0,858	-0,871
71,300	0,816	-0,872
71,350	0,769	-0,870
71,400	0,752	-0,871
71,450	0,750	-0,870
71,500	0,750	-0,870
71,550	0,751	-0,870
71,600	0,751	-0,871
71,650	0,751	-0,869
71,700	0,750	-0,871
71,750	0,750	-0,870
71,800	0,750	-0,871
71,850	0,750	-0,870
71,900	0,750	-0,870
71,950	0,743	-0,869
72,000	0,664	-0,869
72,050	0,608	-0,867
72,100	0,558	-0,867
72,150	0,550	-0,866
72,200	0,531	-0,866
72,250	0,499	-0,865
72,300	0,493	-0,866
72,350	0,492	-0,865
72,400	0,492	-0,865
72,450	0,487	-0,865
72,500	0,431	-0,865
72,550	0,290	-0,860
72,600	0,189	-0,858
72,650	0,165	-0,856
72,700	0,151	-0,856
72,750	0,126	-0,854
72,800	0,120	-0,855
72,850	0,096	-0,853
72,900	0,083	-0,854
72,950	0,051	-0,851
73,000	0,026	-0,851
73,050	0,019	-0,850
73,100	0,016	-0,850
73,150	0,014	-0,849
73,200	0,013	-0,850
73,250	0,012	-0,849
73,300	0,012	-0,850
73,350	0,012	-0,848
73,400	0,012	-0,849
73,450	0,012	-0,848
73,500	0,012	-0,849
73,550	0,012	-0,848
73,600	0,012	-0,849
73,650	0,012	-0,848
73,700	0,011	-0,849
73,750	0,012	-0,848
73,800	0,012	-0,849
73,850	0,012	-0,848
73,900	0,011	-0,849
73,950	0,008	-0,848
74,000	-0,004	-0,848
74,050	-0,007	-0,847
74,100	-0,007	-0,848
74,150	-0,008	-0,847
74,200	-0,008	-0,848
74,250	-0,009	-0,847
74,300	-0,009	-0,848
74,350	-0,024	-0,847
74,400	-0,069	-0,846
74,450	-0,134	-0,840
74,500	-0,190	-0,832
74,550	-0,209	-0,822
74,600	-0,216	-0,814
74,650	-0,223	-0,803
74,700	-0,225	-0,794
74,750	-0,227	-0,783
74,800	-0,230	-0,774
74,850	-0,233	-0,762
74,900	-0,235	-0,751
74,950	-0,239	-0,739
75,000	-0,241	-0,728
75,050	-0,243	-0,715
75,100	-0,246	-0,705
75,150	-0,249	-0,691
75,200	-0,252	-0,678
75,250	-0,255	-0,664
75,300	-0,259	-0,650
75,350	-0,261	-0,633
75,400	-0,263	-0,619
75,450	-0,263	-0,602
75,500	-0,265	-0,587
75,550	-0,267	-0,569
75,600	-0,269	-0,554
75,650	-0,271	-0,535
75,700	-0,272	-0,519
75,750	-0,273	-0,499
75,800	-0,274	-0,483
75,850	-0,276	-0,463
75,900	-0,276	-0,446
75,950	-0,280	-0,426
76,000	-0,281	-0,407
76,050	-0,282	-0,386
76,100	-0,283	-0,367
76,150	-0,284	-0,346
76,200	-0,285	-0,327
76,250	-0,286	-0,307
76,300	-0,287	-0,288
76,350	-0,289	-0,267
76,400	-0,291	-0,248
76,450	-0,294	-0,227
76,500	-0,296	-0,208
76,550	-0,298	-0,186
76,600	-0,302	-0,167
76,650	-0,306	-0,145
76,700	-0,312	-0,126
76,750	-0,320	-0,105
76,800	-0,332	-0,087
76,850	-0,351	-0,067
76,900	-0,383	-0,050
76,950	-0,442	-0,035
77,000	-0,511	-0,025
77,050	-0,567	-0,017
77,100	-0,604	-0,015
77,150	-0,624	-0,011
77,200	-0,639	-0,011
77,250	-0,649	-0,010
77,300	-0,653	-0,010
77,350	-0,657	-0,009
77,400	-0,662	-0,009
77,450	-0,665	-0,008
77,500	-0,666	-0,009
77,550	-0,667	-0,008
77,600	-0,670	-0,009
77,650	-0,675	-0,007
77,700	-0,678	-0,008
77,750	-0,680	-0,007
77,800	-0,684	-0,008
77,850	-0,685	-0,007
77,900	-0,690	-0,008
77,950	-0,696	-0,006
78,000	-0,697	-0,007
78,050	-0,699	-0,006
78,100	-0,701	-0,007
78,150	-0,704	-0,006
78,200	-0,709	-0,006
78,250	-0,713	-0,005
78,300	-0,717	-0,006
78,350	-0,721	-0,005
78,400	-0,726	-0,006
78,450	-0,728	-0,004
78,500	-0,729	-0,006
78,550	-0,732	-0,004
78,600	-0,738	-0,005
78,650	-0,745	-0,004
78,700	-0,750	-0,005
78,750	-0,755	-0,003
78,800	-0,758	-0,004
78,850	-0,761	-0,003
78,900	-0,764	-0,004
78,950	-0,769	-0,002
79,000	-0,774	-0,003
79,050	-0,779	-0,002
79,100	-0,787	-0,003
79,150	-0,796	-0,001
79,200	-0,805	-0,002
79,250	-0,817	-6,346E-4
79,300	-0,825	-0,001
79,350	-0,835	6,764E-4
79,400	-0,843	-1,500E-4
79,450	-0,855	0,001
79,500	-0,868	8,998E-4
79,550	-0,877	0,002
79,600	-0,882	0,001
79,650	-0,890	0,003
79,700	-0,904	0,002
79,750	-0,921	0,004
79,800	-0,929	0,003
79,850	-0,938	0,005
79,900	-0,949	0,004
79,950	-0,955	0,005
80,000	-0,959	0,005
80,050	-0,965	0,006
80,100	-0,969	0,005
80,150	-0,983	0,006
80,200	-0,990	0,005
80,250	-0,996	0,007
80,300	-1,000	0,006
80,350	-1,017	0,007
80,400	-1,031	0,007
80,450	-1,048	0,008
80,500	-1,069	0,008
80,550	-1,081	0,009
80,600	-1,085	0,008
80,650	-1,100	0,010
80,700	-1,115	0,009
80,750	-1,119	0,011
80,800	-1,129	0,010
80,850	-1,148	0,012
80,900	-1,154	0,011
80,950	-1,155	0,012
81,000	-1,156	0,011
81,050	-1,157	0,012
81,100	-1,169	0,011
81,150	-1,173	0,012
81,200	-1,183	0,011
81,250	-1,202	0,013
81,300	-1,217	0,012
81,350	-1,221	0,014
81,400	-1,222	0,013
81,450	-1,234	0,014
81,500	-1,256	0,013
81,550	-1,263	0,014
81,600	-1,264	0,014
81,650	-1,271	0,015
81,700	-1,299	0,014
81,750	-1,338	0,016
81,800	-1,353	0,016
81,850	-1,365	0,017
81,900	-1,399	0,017
81,950	-1,419	0,019
82,000	-1,425	0,018
82,050	-1,442	0,019
82,100	-1,447	0,018
82,150	-1,451	0,019
82,200	-1,468	0,018
82,250	-1,491	0,020
82,300	-1,502	0,019
82,350	-1,527	0,021
82,400	-1,562	0,020
82,450	-1,581	0,022
82,500	-1,595	0,021
82,550	-1,623	0,023
82,600	-1,637	0,022
82,650	-1,638	0,023
82,700	-1,639	0,022
82,750	-1,639	0,023
82,800	-1,639	0,022
82,850	-1,639	0,023
82,900	-1,639	0,023
82,950	-1,639	0,023
83,000	-1,644	0,022
83,050	-1,687	0,024
83,100	-1,722	0,024
83,150	-1,753	0,025
83,200	-1,780	0,025
83,250	-1,799	0,026
83,300	-1,818	0,025
83,350	-1,829	0,027
83,400	-1,841	0,026
83,450	-1,862	0,027
83,500	-1,878	0,026
83,550	-1,897	0,028
83,600	-1,924	0,027
83,650	-1,958	0,029
83,700	-1,994	0,028
83,750	-2,020	0,030
83,800	-2,034	0,029
83,850	-2,047	0,030
83,900	-2,074	0,029
83,950	-2,085	0,031
84,000	-2,118	0,030
84,050	-2,142	0,032
84,100	-2,145	0,031
84,150	-2,151	0,032
84,200	-2,158	0,031
84,250	-2,158	0,032
84,300	-2,163	0,031
84,350	-2,179	0,032
84,400	-2,190	0,031
84,450	-2,205	0,032
84,500	-2,223	0,032
84,550	-2,234	0,033
84,600	-2,243	0,032
84,650	-2,259	0,033
84,700	-2,282	0,033
84,750	-2,309	0,034
84,800	-2,336	0,033
84,850	-2,364	0,035
84,900	-2,392	0,034
84,950	-2,406	0,035
85,000	-2,409	0,034
85,050	-2,416	0,035
85,100	-2,429	0,035
85,150	-2,439	0,036
85,200	-2,463	0,035
85,250	-2,496	0,036
85,300	-2,519	0,036
85,350	-2,558	0,037
85,400	-2,597	0,037
85,450	-2,612	0,038
85,500	-2,643	0,038
85,550	-2,681	0,039
85,600	-2,690	0,038
85,650	-2,691	0,039
85,700	-2,705	0,038
85,750	-2,717	0,039
85,800	-2,735	0,038
85,850	-2,744	0,039
85,900	-2,750	0,038
85,950	-2,775	0,040
86,000	-2,790	0,039
86,050	-2,791	0,040
86,100	-2,792	0,039
86,150	-2,791	0,040
86,200	-2,792	0,039
86,250	-2,792	0,040
86,300	-2,793	0,039
86,350	-2,812	0,040
86,400	-2,825	0,040
86,450	-2,826	0,040
86,500	-2,826	0,040
86,550	-2,826	0,040
86,600	-2,826	0,040
86,650	-2,826	0,041
86,700	-2,827	0,039
86,750	-2,840	0,041
86,800	-2,921	0,040
86,850	-2,994	0,042
86,900	-3,032	0,042
86,950	-3,087	0,043
87,000	-3,125	0,043
87,050	-3,155	0,044
87,100	-3,195	0,044
87,150	-3,206	0,045
87,200	-3,207	0,044
87,250	-3,207	0,045
87,300	-3,207	0,044
87,350	-3,208	0,044
87,400	-3,207	0,044
87,450	-3,226	0,045
87,500	-3,291	0,044
87,550	-3,325	0,045
87,600	-3,356	0,045
87,650	-3,400	0,046
87,700	-3,415	0,046
87,750	-3,445	0,047
87,800	-3,501	0,047
87,850	-3,525	0,048
87,900	-3,569	0,047
87,950	-3,598	0,048
88,000	-3,615	0,048
88,050	-3,651	0,049
88,100	-3,682	0,048
88,150	-3,723	0,049
88,200	-3,751	0,049
88,250	-3,760	0,050
88,300	-3,762	0,049
88,350	-3,761	0,050
88,400	-3,770	0,049
88,450	-3,775	0,050
88,500	-3,775	0,049
88,550	-3,775	0,050
88,600	-3,776	0,049
88,650	-3,801	0,050
88,700	-3,878	0,050
88,750	-3,992	0,052
88,800	-4,077	0,052
88,850	-4,142	0,053
88,900	-4,195	0,053
88,950	-4,205	0,054
89,000	-4,208	0,053
89,050	-4,210	0,054
89,100	-4,211	0,053
89,150	-4,211	0,054
89,200	-4,211	0,053
89,250	-4,214	0,054
89,300	-4,227	0,053
89,350	-4,238	0,054
89,400	-4,242	0,053
89,450	-4,241	0,054
89,500	-4,241	0,054
89,550	-4,251	0,054
89,600	-4,281	0,053
89,650	-4,311	0,054
89,700	-4,342	0,054
89,750	-4,353	0,054
89,800	-4,380	0,054
89,850	-4,405	0,055
89,900	-4,468	0,055
89,950	-4,510	0,056
90,000	-4,522	0,055
90,050	-4,531	0,056
90,100	-4,565	0,056
90,150	-4,584	0,056
90,200	-4,601	0,056
90,250	-4,631	0,056
90,300	-4,657	0,057
90,350	-4,680	0,057
90,400	-4,685	0,057
90,450	-4,688	0,057
90,500	-4,698	0,057
90,550	-4,702	0,057
90,600	-4,704	0,057
90,650	-4,703	0,057
90,700	-4,720	0,057
90,750	-4,743	0,057
90,800	-4,762	0,057
90,850	-4,780	0,057
90,900	-4,787	0,058
90,950	-4,817	0,058
91,000	-4,833	0,058
91,050	-4,846	0,058
91,100	-4,860	0,058
91,150	-4,864	0,058
91,200	-4,874	0,058
91,250	-4,889	0,058
91,300	-4,921	0,058
91,350	-4,948	0,059
91,400	-4,958	0,059
91,450	-4,958	0,059
91,500	-4,959	0,058
91,550	-4,959	0,058
91,600	-4,959	0,059
91,650	-4,958	0,059
91,700	-4,959	0,059
91,750	-4,959	0,059
91,800	-4,978	0,059
91,850	-5,044	0,059
91,900	-5,089	0,059
91,950	-5,094	0,060
92,000	-5,095	0,060
92,050	-5,094	0,060
92,100	-5,095	0,060
92,150	-5,095	0,060
92,200	-5,106	0,060
92,250	-5,120	0,060
92,300	-5,141	0,060
92,350	-5,177	0,060
92,400	-5,227	0,060
92,450	-5,261	0,060
92,500	-5,304	0,061
92,550	-5,337	0,061
92,600	-5,365	0,061
92,650	-5,441	0,062
92,700	-5,505	0,062
92,750	-5,556	0,063
92,800	-5,580	0,063
92,850	-5,580	0,063
92,900	-5,580	0,063
92,950	-5,580	0,063
93,000	-5,580	0,063
93,050	-5,580	0,063
93,100	-5,583	0,063
93,150	-5,614	0,063
93,200	-5,671	0,063
93,250	-5,700	0,063
93,300	-5,737	0,064
93,350	-5,778	0,064
93,400	-5,815	0,064
93,450	-5,831	0,064
93,500	-5,836	0,064
93,550	-5,840	0,064
93,600	-5,841	0,064
93,650	-5,841	0,064
93,700	-5,855	0,064
93,750	-5,873	0,064
93,800	-5,875	0,065
93,850	-5,875	0,064
93,900	-5,875	0,065
93,950	-5,875	0,064
94,000	-5,875	0,065
94,050	-5,875	0,064
94,100	-5,875	0,065
94,150	-5,875	0,064
94,200	-5,875	0,065
94,250	-5,875	0,064
94,300	-5,887	0,065
94,350	-5,903	0,065
94,400	-5,920	0,065
94,450	-5,952	0,065
94,500	-6,011	0,065
94,550	-6,063	0,065
94,600	-6,117	0,066
94,650	-6,166	0,066
94,700	-6,191	0,066
94,750	-6,228	0,066
94,800	-6,259	0,067
94,850	-6,283	0,066
94,900	-6,328	0,067
94,950	-6,348	0,067
95,000	-6,391	0,068
95,050	-6,461	0,067
95,100	-6,483	0,068
95,150	-6,516	0,068
95,200	-6,548	0,068
95,250	-6,558	0,068
95,300	-6,560	0,069
95,350	-6,565	0,067
95,400	-6,575	0,068
95,450	-6,580	0,068
95,500	-6,582	0,068
95,550	-6,597	0,068
95,600	-6,607	0,069
95,650	-6,617	0,068
95,700	-6,633	0,069
95,750	-6,640	0,068
95,800	-6,651	0,069
95,850	-6,657	0,068
95,900	-6,660	0,069
95,950	-6,662	0,069
96,000	-6,664	0,069
96,050	-6,664	0,068
96,100	-6,664	0,069
96,150	-6,664	0,068
96,200	-6,664	0,069
96,250	-6,664	0,068
96,300	-6,665	0,069
96,350	-6,664	0,068
96,400	-6,665	0,069
96,450	-6,664	0,068
96,500	-6,665	0,069
96,550	-6,664	0,068
96,600	-6,665	0,069
96,650	-6,665	0,068
96,700	-6,665	0,069
96,750	-6,665	0,068
96,800	-6,665	0,069
96,850	-6,665	0,068
96,900	-6,665	0,069
96,950	-6,665	0,068
97,000	-6,665	0,069
97,050	-6,665	0,068
97,100	-6,665	0,069
97,150	-6,665	0,068
97,200	-6,665	0,069
97,250	-6,665	0,068
97,300	-6,665	0,069
97,350	-6,665	0,068
97,400	-6,665	0,069
97,450	-6,665	0,068
97,500	-6,665	0,069
97,550	-6,665	0,068
97,600	-6,665	0,069
97,650	-6,665	0,068
97,700	-6,665	0,069
97,750	-6,665	0,068
97,800	-6,665	0,069
97,850	-6,665	0,068
97,900	-6,665	0,069
97,950	-6,665	0,068
98,000	-6,665	0,069
98,050	-6,665	0,068
98,100	-6,666	0,069
98,150	-6,665	0,068
98,200	-6,665	0,069
98,250	-6,665	0,068
98,300	-6,665	0,069
98,350	-6,665	0,068
98,400	-6,666	0,069
98,450	-6,665	0,068
98,500	-6,666	0,069
98,550	-6,665	0,068
98,600	-6,665	0,069
98,650	-6,665	0,068
98,700	-6,666	0,069
98,750	-6,665	0,068
98,800	-6,666	0,069
98,850	-6,665	0,068
98,900	-6,665	0,069
98,950	-6,665	0,068
99,000	-6,666	0,069
99,050	-6,665	0,068
99,100	-6,666	0,069
99,150	-6,666	0,068
99,200	-6,665	0,069
99,250	-6,666	0,068
99,300	-6,666	0,069
99,350	-6,665	0,068
99,400	-6,666	0,069
99,450	-6,666	0,068
99,500	-6,666	0,069
99,550	-6,666	0,068
99,600	-6,666	0,069
99,650	-6,665	0,068
99,700	-6,666	0,069
99,750	-6,665	0,068
99,800	-6,666	0,069
99,850	-6,665	0,068
99,900	-6,666	0,069
99,950	-6,665	0,068
100,000	-6,666	0,069
100,050	-6,665	0,068
100,100	-6,666	0,069
100,150	-6,665	0,068
100,200	-6,666	0,069
100,250	-6,665	0,068
100,300	-6,666	0,069
100,350	-6,665	0,068
100,400	-6,666	0,069
100,450	-6,665	0,068
100,500	-6,665	0,069
100,550	-6,665	0,068
100,600	-6,666	0,069
100,650	-6,665	0,068
100,700	-6,665	0,070
100,750	-6,665	0,068
100,800	-6,666	0,069
100,850	-6,665	0,068
100,900	-6,666	0,069
100,950	-6,665	0,068
101,000	-6,666	0,069
101,050	-6,666	0,068
101,100	-6,666	0,069
101,150	-6,665	0,068
101,200	-6,666	0,069
101,250	-6,665	0,068
101,300	-6,666	0,069
101,350	-6,665	0,068
101,400	-6,666	0,069
101,450	-6,665	0,068
101,500	-6,666	0,069
