Zeit (s) Messreihe #5	Spannung, Ch A (V) Messreihe #5	Spannung, Ch B (V) Messreihe #5
0,000	-0,009	-4,125E-4
0,050	-0,009	-0,002
0,100	-0,010	-6,774E-4
0,150	-0,010	-0,002
0,200	-0,009	-5,663E-4
0,250	-0,010	-0,002
0,300	-0,010	-6,737E-4
0,350	-0,024	-0,002
0,400	-0,033	-1,866E-4
0,450	-0,045	-0,001
0,500	-0,045	-6,824E-5
0,550	-0,071	-0,001
0,600	-0,118	-2,037E-4
0,650	-0,162	-0,001
0,700	-0,224	4,041E-5
0,750	-0,271	-6,908E-4
0,800	-0,310	4,115E-4
0,850	-0,337	-7,372E-4
0,900	-0,365	7,325E-4
0,950	-0,381	-4,821E-4
1,000	-0,386	7,777E-4
1,050	-0,388	-3,112E-4
1,100	-0,388	4,152E-4
1,150	-0,388	-1,403E-4
1,200	-0,386	9,498E-4
1,250	-0,386	-1,671E-4
1,300	-0,423	0,001
1,350	-0,456	-8,899E-5
1,400	-0,455	0,001
1,450	-0,456	-3,284E-5
1,500	-0,456	0,001
1,550	-0,456	-1,061E-4
1,600	-0,458	9,010E-4
1,650	-0,472	-1,697E-5
1,700	-0,487	0,001
1,750	-0,500	4,982E-4
1,800	-0,508	0,001
1,850	-0,527	5,751E-4
1,900	-0,545	0,001
1,950	-0,560	4,371E-4
2,000	-0,566	0,002
2,050	-0,576	3,199E-4
2,100	-0,598	0,002
2,150	-0,612	7,606E-4
2,200	-0,616	0,002
2,250	-0,616	9,047E-4
2,300	-0,630	0,002
2,350	-0,643	8,021E-4
2,400	-0,659	0,002
2,450	-0,668	0,001
2,500	-0,677	0,002
2,550	-0,689	8,815E-4
2,600	-0,697	0,002
2,650	-0,710	0,001
2,700	-0,729	0,002
2,750	-0,744	0,001
2,800	-0,759	0,003
2,850	-0,784	0,001
2,900	-0,795	0,002
2,950	-0,810	0,001
3,000	-0,816	0,002
3,050	-0,827	0,001
3,100	-0,856	0,003
3,150	-0,897	0,002
3,200	-0,932	0,003
3,250	-0,947	0,002
3,300	-0,948	0,003
3,350	-0,946	0,002
3,400	-0,950	0,003
3,450	-0,952	0,002
3,500	-0,953	0,003
3,550	-0,952	0,002
3,600	-0,953	0,003
3,650	-0,952	0,002
3,700	-0,953	0,004
3,750	-0,953	0,002
3,800	-0,958	0,003
3,850	-0,964	0,002
3,900	-0,969	0,003
3,950	-0,972	0,002
4,000	-0,981	0,004
4,050	-0,984	0,003
4,100	-0,992	0,004
4,150	-1,001	0,003
4,200	-1,004	0,004
4,250	-1,015	0,002
4,300	-1,023	0,004
4,350	-1,030	0,003
4,400	-1,038	0,004
4,450	-1,046	0,003
4,500	-1,051	0,004
4,550	-1,069	0,003
4,600	-1,088	0,004
4,650	-1,092	0,003
4,700	-1,111	0,004
4,750	-1,134	0,003
4,800	-1,139	0,004
4,850	-1,145	0,003
4,900	-1,149	0,004
4,950	-1,149	0,003
5,000	-1,149	0,004
5,050	-1,153	0,003
5,100	-1,181	0,005
5,150	-1,197	0,003
5,200	-1,219	0,005
5,250	-1,231	0,004
5,300	-1,233	0,005
5,350	-1,243	0,004
5,400	-1,247	0,005
5,450	-1,249	0,004
5,500	-1,255	0,005
5,550	-1,255	0,004
5,600	-1,255	0,005
5,650	-1,255	0,004
5,700	-1,255	0,005
5,750	-1,256	0,004
5,800	-1,280	0,005
5,850	-1,316	0,004
5,900	-1,326	0,005
5,950	-1,340	0,005
6,000	-1,364	0,005
6,050	-1,374	0,005
6,100	-1,383	0,005
6,150	-1,383	0,005
6,200	-1,394	0,006
6,250	-1,421	0,005
6,300	-1,454	0,006
6,350	-1,476	0,005
6,400	-1,478	0,006
6,450	-1,479	0,005
6,500	-1,496	0,006
6,550	-1,509	0,005
6,600	-1,509	0,006
6,650	-1,527	0,005
6,700	-1,543	0,006
6,750	-1,544	0,005
6,800	-1,550	0,006
6,850	-1,568	0,005
6,900	-1,592	0,007
6,950	-1,600	0,006
7,000	-1,599	0,006
7,050	-1,599	0,005
7,100	-1,599	0,006
7,150	-1,599	0,005
7,200	-1,600	0,007
7,250	-1,602	0,005
7,300	-1,601	0,007
7,350	-1,601	0,006
7,400	-1,608	0,007
7,450	-1,639	0,006
7,500	-1,660	0,007
7,550	-1,662	0,006
7,600	-1,686	0,007
7,650	-1,686	0,006
7,700	-1,686	0,007
7,750	-1,702	0,006
7,800	-1,729	0,007
7,850	-1,746	0,006
7,900	-1,779	0,007
7,950	-1,859	0,006
8,000	-1,916	0,008
8,050	-1,966	0,007
8,100	-1,992	0,008
8,150	-1,993	0,007
8,200	-1,993	0,008
8,250	-1,993	0,007
8,300	-1,993	0,008
8,350	-1,993	0,007
8,400	-1,993	0,008
8,450	-1,993	0,007
8,500	-2,000	0,008
8,550	-2,013	0,008
8,600	-2,034	0,008
8,650	-2,070	0,007
8,700	-2,084	0,009
8,750	-2,100	0,007
8,800	-2,124	0,009
8,850	-2,145	0,008
8,900	-2,155	0,009
8,950	-2,174	0,008
9,000	-2,194	0,009
9,050	-2,207	0,008
9,100	-2,219	0,009
9,150	-2,233	0,008
9,200	-2,248	0,009
9,250	-2,260	0,008
9,300	-2,280	0,009
9,350	-2,317	0,008
9,400	-2,336	0,010
9,450	-2,337	0,008
9,500	-2,340	0,010
9,550	-2,362	0,009
9,600	-2,375	0,010
9,650	-2,383	0,009
9,700	-2,423	0,010
9,750	-2,451	0,009
9,800	-2,458	0,010
9,850	-2,473	0,009
9,900	-2,497	0,010
9,950	-2,504	0,009
10,000	-2,505	0,010
10,050	-2,511	0,009
10,100	-2,533	0,010
10,150	-2,569	0,009
10,200	-2,605	0,011
10,250	-2,633	0,010
10,300	-2,644	0,010
10,350	-2,644	0,010
10,400	-2,644	0,011
10,450	-2,644	0,010
10,500	-2,644	0,011
10,550	-2,644	0,010
10,600	-2,644	0,011
10,650	-2,654	0,010
10,700	-2,719	0,011
10,750	-2,799	0,010
10,800	-2,829	0,011
10,850	-2,832	0,010
10,900	-2,838	0,011
10,950	-2,847	0,011
11,000	-2,866	0,011
11,050	-2,870	0,010
11,100	-2,870	0,012
11,150	-2,884	0,011
11,200	-2,888	0,011
11,250	-2,889	0,010
11,300	-2,888	0,012
11,350	-2,888	0,010
11,400	-2,888	0,012
11,450	-2,888	0,011
11,500	-2,890	0,012
11,550	-2,899	0,011
11,600	-2,928	0,012
11,650	-2,957	0,011
11,700	-2,968	0,012
11,750	-2,989	0,011
11,800	-3,020	0,012
11,850	-3,055	0,011
11,900	-3,095	0,012
11,950	-3,125	0,011
12,000	-3,157	0,013
12,050	-3,174	0,012
12,100	-3,188	0,013
12,150	-3,198	0,012
12,200	-3,233	0,013
12,250	-3,255	0,012
12,300	-3,268	0,013
12,350	-3,279	0,012
12,400	-3,283	0,013
12,450	-3,297	0,012
12,500	-3,300	0,013
12,550	-3,314	0,012
12,600	-3,328	0,014
12,650	-3,344	0,013
12,700	-3,357	0,013
12,750	-3,368	0,012
12,800	-3,368	0,013
12,850	-3,368	0,013
12,900	-3,368	0,013
12,950	-3,368	0,013
13,000	-3,370	0,014
13,050	-3,372	0,013
13,100	-3,388	0,014
13,150	-3,450	0,013
13,200	-3,497	0,014
13,250	-3,539	0,013
13,300	-3,571	0,014
13,350	-3,599	0,013
13,400	-3,628	0,014
13,450	-3,646	0,014
13,500	-3,658	0,014
13,550	-3,669	0,014
13,600	-3,687	0,015
13,650	-3,700	0,014
13,700	-3,711	0,014
13,750	-3,723	0,013
13,800	-3,725	0,015
13,850	-3,726	0,014
13,900	-3,740	0,015
13,950	-3,750	0,014
14,000	-3,766	0,015
14,050	-3,780	0,014
14,100	-3,793	0,015
14,150	-3,807	0,014
14,200	-3,826	0,015
14,250	-3,838	0,014
14,300	-3,841	0,015
14,350	-3,853	0,015
14,400	-3,854	0,015
14,450	-3,884	0,015
14,500	-3,903	0,016
14,550	-3,907	0,015
14,600	-3,918	0,016
14,650	-3,920	0,015
14,700	-3,967	0,016
14,750	-4,017	0,015
14,800	-4,023	0,016
14,850	-4,023	0,015
14,900	-4,023	0,016
14,950	-4,023	0,015
15,000	-4,028	0,016
15,050	-4,065	0,016
15,100	-4,088	0,016
15,150	-4,111	0,016
15,200	-4,144	0,016
15,250	-4,146	0,016
15,300	-4,146	0,017
15,350	-4,172	0,016
15,400	-4,195	0,017
15,450	-4,227	0,016
15,500	-4,258	0,017
15,550	-4,275	0,016
15,600	-4,276	0,017
15,650	-4,276	0,016
15,700	-4,276	0,017
15,750	-4,276	0,016
15,800	-4,276	0,017
15,850	-4,276	0,016
15,900	-4,300	0,017
15,950	-4,338	0,016
16,000	-4,389	0,017
16,050	-4,440	0,016
16,100	-4,483	0,018
16,150	-4,493	0,017
16,200	-4,506	0,018
16,250	-4,542	0,017
16,300	-4,559	0,018
16,350	-4,588	0,017
16,400	-4,602	0,018
16,450	-4,623	0,017
16,500	-4,636	0,018
16,550	-4,640	0,018
16,600	-4,654	0,018
16,650	-4,659	0,017
16,700	-4,658	0,018
16,750	-4,658	0,018
16,800	-4,659	0,018
16,850	-4,659	0,017
16,900	-4,679	0,018
16,950	-4,719	0,018
17,000	-4,759	0,019
17,050	-4,791	0,018
17,100	-4,807	0,019
17,150	-4,838	0,018
17,200	-4,857	0,019
17,250	-4,892	0,018
17,300	-4,933	0,020
17,350	-4,969	0,019
17,400	-4,997	0,019
17,450	-5,014	0,019
17,500	-5,041	0,020
17,550	-5,058	0,019
17,600	-5,134	0,020
17,650	-5,171	0,019
17,700	-5,177	0,019
17,750	-5,176	0,019
17,800	-5,176	0,020
17,850	-5,176	0,020
17,900	-5,176	0,020
17,950	-5,176	0,020
18,000	-5,178	0,020
18,050	-5,210	0,019
18,100	-5,258	0,020
18,150	-5,339	0,020
18,200	-5,392	0,021
18,250	-5,395	0,020
18,300	-5,394	0,021
18,350	-5,396	0,020
18,400	-5,399	0,021
18,450	-5,399	0,021
18,500	-5,399	0,021
18,550	-5,403	0,021
18,600	-5,404	0,021
18,650	-5,404	0,020
18,700	-5,406	0,021
18,750	-5,435	0,021
18,800	-5,497	0,021
18,850	-5,528	0,021
18,900	-5,599	0,022
18,950	-5,623	0,021
19,000	-5,659	0,022
19,050	-5,692	0,021
19,100	-5,720	0,022
19,150	-5,758	0,022
19,200	-5,782	0,023
19,250	-5,825	0,022
19,300	-5,879	0,022
19,350	-5,908	0,022
19,400	-5,952	0,022
19,450	-5,979	0,022
19,500	-6,002	0,023
19,550	-6,035	0,022
19,600	-6,062	0,023
19,650	-6,076	0,023
19,700	-6,077	0,023
19,750	-6,077	0,023
19,800	-6,077	0,023
19,850	-6,077	0,023
19,900	-6,079	0,023
19,950	-6,084	0,023
20,000	-6,130	0,023
20,050	-6,181	0,023
20,100	-6,227	0,024
20,150	-6,263	0,024
20,200	-6,280	0,024
20,250	-6,309	0,024
20,300	-6,349	0,024
20,350	-6,399	0,024
20,400	-6,496	0,024
20,450	-6,575	0,024
20,500	-6,617	0,025
20,550	-6,639	0,024
20,600	-6,651	0,025
20,650	-6,657	0,024
20,700	-6,660	0,025
20,750	-6,663	0,024
20,800	-6,663	0,025
20,850	-6,664	0,025
20,900	-6,664	0,025
20,950	-6,665	0,025
21,000	-6,665	0,025
21,050	-6,665	0,025
21,100	-6,656	0,025
21,150	-6,633	0,025
21,200	-6,593	0,025
21,250	-6,501	0,025
21,300	-6,448	0,025
21,350	-6,441	0,024
21,400	-6,442	0,025
21,450	-6,441	0,025
21,500	-6,441	0,025
21,550	-6,440	0,025
21,600	-6,415	0,025
21,650	-6,391	0,024
21,700	-6,374	0,024
21,750	-6,372	0,025
21,800	-6,373	0,025
21,850	-6,372	0,024
21,900	-6,369	0,025
21,950	-6,354	0,025
22,000	-6,343	0,024
22,050	-6,325	0,024
22,100	-6,307	0,025
22,150	-6,298	0,025
22,200	-6,284	0,025
22,250	-6,271	0,025
22,300	-6,267	0,025
22,350	-6,248	0,024
22,400	-6,247	0,025
22,450	-6,246	0,025
22,500	-6,245	0,024
22,550	-6,233	0,025
22,600	-6,220	0,025
22,650	-6,203	0,024
22,700	-6,177	0,025
22,750	-6,168	0,024
22,800	-6,158	0,025
22,850	-6,144	0,025
22,900	-6,127	0,024
22,950	-6,112	0,025
23,000	-6,088	0,025
23,050	-6,086	0,024
23,100	-6,086	0,025
23,150	-6,064	0,024
23,200	-6,059	0,025
23,250	-6,059	0,025
23,300	-6,059	0,025
23,350	-6,059	0,025
23,400	-6,059	0,025
23,450	-6,051	0,025
23,500	-6,029	0,025
23,550	-6,014	0,025
23,600	-6,014	0,025
23,650	-5,998	0,024
23,700	-5,976	0,024
23,750	-5,974	0,025
23,800	-5,974	0,025
23,850	-5,974	0,025
23,900	-5,974	0,025
23,950	-5,974	0,024
24,000	-5,974	0,025
24,050	-5,945	0,025
24,100	-5,905	0,025
24,150	-5,899	0,025
24,200	-5,899	0,025
24,250	-5,899	0,025
24,300	-5,884	0,025
24,350	-5,881	0,025
24,400	-5,882	0,024
24,450	-5,881	0,025
24,500	-5,881	0,024
24,550	-5,881	0,025
24,600	-5,878	0,025
24,650	-5,869	0,024
24,700	-5,868	0,025
24,750	-5,868	0,025
24,800	-5,868	0,025
24,850	-5,868	0,025
24,900	-5,868	0,025
24,950	-5,868	0,025
25,000	-5,868	0,025
25,050	-5,868	0,025
25,100	-5,868	0,025
25,150	-5,867	0,025
25,200	-5,854	0,025
25,250	-5,842	0,025
25,300	-5,824	0,025
25,350	-5,801	0,025
25,400	-5,792	0,025
25,450	-5,791	0,025
25,500	-5,792	0,025
25,550	-5,789	0,025
25,600	-5,765	0,025
25,650	-5,747	0,025
25,700	-5,739	0,025
25,750	-5,738	0,025
25,800	-5,738	0,025
25,850	-5,734	0,025
25,900	-5,711	0,025
25,950	-5,693	0,025
26,000	-5,679	0,025
26,050	-5,678	0,025
26,100	-5,679	0,025
26,150	-5,680	0,025
26,200	-5,678	0,025
26,250	-5,676	0,025
26,300	-5,669	0,025
26,350	-5,657	0,025
26,400	-5,638	0,025
26,450	-5,624	0,025
26,500	-5,622	0,025
26,550	-5,615	0,025
26,600	-5,614	0,025
26,650	-5,591	0,025
26,700	-5,543	0,025
26,750	-5,507	0,025
26,800	-5,488	0,025
26,850	-5,470	0,025
26,900	-5,462	0,025
26,950	-5,440	0,025
27,000	-5,421	0,025
27,050	-5,422	0,025
27,100	-5,421	0,025
27,150	-5,421	0,025
27,200	-5,421	0,025
27,250	-5,418	0,025
27,300	-5,418	0,025
27,350	-5,417	0,025
27,400	-5,417	0,025
27,450	-5,393	0,025
27,500	-5,272	0,025
27,550	-5,214	0,025
27,600	-5,212	0,025
27,650	-5,212	0,025
27,700	-5,197	0,025
27,750	-5,152	0,025
27,800	-5,092	0,024
27,850	-5,045	0,024
27,900	-5,004	0,024
27,950	-4,975	0,024
28,000	-4,975	0,024
28,050	-4,975	0,024
28,100	-4,975	0,024
28,150	-4,975	0,024
28,200	-4,975	0,024
28,250	-4,931	0,025
28,300	-4,897	0,024
28,350	-4,894	0,024
28,400	-4,890	0,024
28,450	-4,882	0,024
28,500	-4,881	0,024
28,550	-4,881	0,024
28,600	-4,880	0,024
28,650	-4,852	0,025
28,700	-4,837	0,024
28,750	-4,832	0,024
28,800	-4,832	0,024
28,850	-4,832	0,024
28,900	-4,822	0,024
28,950	-4,819	0,024
29,000	-4,818	0,024
29,050	-4,818	0,024
29,100	-4,819	0,024
29,150	-4,818	0,024
29,200	-4,811	0,024
29,250	-4,800	0,025
29,300	-4,796	0,024
29,350	-4,796	0,025
29,400	-4,793	0,024
29,450	-4,775	0,025
29,500	-4,765	0,025
29,550	-4,765	0,025
29,600	-4,755	0,024
29,650	-4,751	0,025
29,700	-4,748	0,024
29,750	-4,723	0,025
29,800	-4,716	0,024
29,850	-4,693	0,025
29,900	-4,688	0,025
29,950	-4,688	0,025
30,000	-4,665	0,024
30,050	-4,654	0,025
30,100	-4,654	0,024
30,150	-4,654	0,025
30,200	-4,651	0,024
30,250	-4,627	0,025
30,300	-4,609	0,024
30,350	-4,609	0,025
30,400	-4,590	0,024
30,450	-4,571	0,024
30,500	-4,550	0,024
30,550	-4,542	0,024
30,600	-4,542	0,024
30,650	-4,539	0,024
30,700	-4,503	0,024
30,750	-4,502	0,025
30,800	-4,502	0,024
30,850	-4,502	0,024
30,900	-4,502	0,024
30,950	-4,502	0,025
31,000	-4,496	0,024
31,050	-4,493	0,025
31,100	-4,477	0,024
31,150	-4,445	0,025
31,200	-4,367	0,024
31,250	-4,280	0,024
31,300	-4,262	0,024
31,350	-4,262	0,024
31,400	-4,259	0,024
31,450	-4,259	0,024
31,500	-4,259	0,024
31,550	-4,258	0,024
31,600	-4,258	0,024
31,650	-4,258	0,024
31,700	-4,258	0,024
31,750	-4,258	0,024
31,800	-4,256	0,024
31,850	-4,242	0,024
31,900	-4,220	0,024
31,950	-4,214	0,025
32,000	-4,203	0,024
32,050	-4,190	0,024
32,100	-4,183	0,024
32,150	-4,172	0,025
32,200	-4,157	0,024
32,250	-4,147	0,024
32,300	-4,142	0,024
32,350	-4,142	0,024
32,400	-4,138	0,024
32,450	-4,127	0,025
32,500	-4,115	0,024
32,550	-4,110	0,024
32,600	-4,106	0,024
32,650	-4,102	0,024
32,700	-4,089	0,024
32,750	-4,081	0,025
32,800	-4,076	0,024
32,850	-4,075	0,025
32,900	-4,075	0,024
32,950	-4,077	0,024
33,000	-4,078	0,024
33,050	-4,076	0,025
33,100	-4,076	0,024
33,150	-4,076	0,025
33,200	-4,071	0,024
33,250	-4,062	0,025
33,300	-4,051	0,024
33,350	-4,030	0,025
33,400	-4,011	0,024
33,450	-3,992	0,025
33,500	-3,988	0,024
33,550	-3,981	0,024
33,600	-3,968	0,024
33,650	-3,960	0,025
33,700	-3,958	0,024
33,750	-3,947	0,025
33,800	-3,933	0,024
33,850	-3,915	0,024
33,900	-3,901	0,024
33,950	-3,898	0,025
34,000	-3,892	0,024
34,050	-3,876	0,025
34,100	-3,867	0,024
34,150	-3,866	0,025
34,200	-3,863	0,024
34,250	-3,854	0,025
34,300	-3,853	0,024
34,350	-3,849	0,025
34,400	-3,834	0,024
34,450	-3,824	0,025
34,500	-3,804	0,024
34,550	-3,781	0,025
34,600	-3,777	0,024
34,650	-3,771	0,025
34,700	-3,751	0,024
34,750	-3,735	0,025
34,800	-3,733	0,024
34,850	-3,720	0,025
34,900	-3,713	0,024
34,950	-3,712	0,025
35,000	-3,706	0,024
35,050	-3,702	0,025
35,100	-3,700	0,024
35,150	-3,689	0,025
35,200	-3,689	0,024
35,250	-3,689	0,025
35,300	-3,688	0,024
35,350	-3,689	0,025
35,400	-3,681	0,024
35,450	-3,671	0,025
35,500	-3,670	0,024
35,550	-3,652	0,025
35,600	-3,640	0,024
35,650	-3,635	0,025
35,700	-3,619	0,024
35,750	-3,597	0,025
35,800	-3,589	0,024
35,850	-3,587	0,025
35,900	-3,586	0,024
35,950	-3,586	0,025
36,000	-3,587	0,024
36,050	-3,586	0,025
36,100	-3,587	0,024
36,150	-3,587	0,025
36,200	-3,587	0,024
36,250	-3,587	0,025
36,300	-3,587	0,024
36,350	-3,577	0,025
36,400	-3,552	0,024
36,450	-3,547	0,025
36,500	-3,536	0,024
36,550	-3,532	0,025
36,600	-3,512	0,024
36,650	-3,505	0,025
36,700	-3,505	0,024
36,750	-3,505	0,025
36,800	-3,495	0,025
36,850	-3,476	0,025
36,900	-3,458	0,024
36,950	-3,444	0,025
37,000	-3,438	0,025
37,050	-3,432	0,025
37,100	-3,414	0,025
37,150	-3,392	0,025
37,200	-3,379	0,025
37,250	-3,367	0,025
37,300	-3,357	0,024
37,350	-3,346	0,025
37,400	-3,343	0,024
37,450	-3,322	0,025
37,500	-3,293	0,024
37,550	-3,269	0,025
37,600	-3,252	0,024
37,650	-3,237	0,025
37,700	-3,222	0,024
37,750	-3,204	0,025
37,800	-3,189	0,024
37,850	-3,181	0,025
37,900	-3,181	0,024
37,950	-3,179	0,025
38,000	-3,164	0,024
38,050	-3,145	0,025
38,100	-3,130	0,024
38,150	-3,122	0,025
38,200	-3,114	0,024
38,250	-3,107	0,025
38,300	-3,093	0,024
38,350	-3,078	0,025
38,400	-3,050	0,024
38,450	-3,025	0,025
38,500	-2,997	0,024
38,550	-2,991	0,025
38,600	-2,991	0,024
38,650	-2,991	0,024
38,700	-2,991	0,024
38,750	-2,990	0,025
38,800	-2,991	0,024
38,850	-2,991	0,025
38,900	-2,986	0,024
38,950	-2,961	0,025
39,000	-2,947	0,024
39,050	-2,941	0,025
39,100	-2,926	0,024
39,150	-2,920	0,025
39,200	-2,908	0,024
39,250	-2,891	0,025
39,300	-2,879	0,024
39,350	-2,875	0,025
39,400	-2,853	0,024
39,450	-2,831	0,025
39,500	-2,808	0,024
39,550	-2,786	0,025
39,600	-2,761	0,024
39,650	-2,747	0,025
39,700	-2,717	0,024
39,750	-2,696	0,025
39,800	-2,664	0,024
39,850	-2,644	0,025
39,900	-2,604	0,024
39,950	-2,580	0,024
40,000	-2,560	0,024
40,050	-2,537	0,024
40,100	-2,537	0,024
40,150	-2,537	0,024
40,200	-2,537	0,024
40,250	-2,537	0,025
40,300	-2,537	0,024
40,350	-2,537	0,024
40,400	-2,537	0,024
40,450	-2,536	0,025
40,500	-2,537	0,023
40,550	-2,537	0,025
40,600	-2,537	0,024
40,650	-2,531	0,025
40,700	-2,501	0,024
40,750	-2,479	0,024
40,800	-2,477	0,023
40,850	-2,477	0,025
40,900	-2,477	0,024
40,950	-2,477	0,024
41,000	-2,476	0,024
41,050	-2,477	0,024
41,100	-2,476	0,024
41,150	-2,476	0,025
41,200	-2,476	0,024
41,250	-2,476	0,025
41,300	-2,476	0,024
41,350	-2,476	0,025
41,400	-2,457	0,024
41,450	-2,427	0,025
41,500	-2,402	0,024
41,550	-2,387	0,025
41,600	-2,348	0,024
41,650	-2,322	0,024
41,700	-2,300	0,024
41,750	-2,300	0,025
41,800	-2,291	0,024
41,850	-2,269	0,024
41,900	-2,245	0,023
41,950	-2,237	0,025
42,000	-2,216	0,024
42,050	-2,191	0,024
42,100	-2,174	0,023
42,150	-2,152	0,024
42,200	-2,131	0,023
42,250	-2,096	0,024
42,300	-2,072	0,023
42,350	-2,070	0,024
42,400	-2,056	0,023
42,450	-2,030	0,024
42,500	-2,025	0,023
42,550	-2,022	0,024
42,600	-2,000	0,023
42,650	-1,998	0,024
42,700	-1,989	0,023
42,750	-1,963	0,024
42,800	-1,953	0,023
42,850	-1,951	0,024
42,900	-1,936	0,023
42,950	-1,932	0,024
43,000	-1,929	0,023
43,050	-1,913	0,024
43,100	-1,901	0,023
43,150	-1,888	0,024
43,200	-1,873	0,023
43,250	-1,866	0,024
43,300	-1,861	0,023
43,350	-1,851	0,024
43,400	-1,835	0,023
43,450	-1,829	0,024
43,500	-1,829	0,023
43,550	-1,829	0,024
43,600	-1,829	0,023
43,650	-1,813	0,024
43,700	-1,801	0,023
43,750	-1,786	0,024
43,800	-1,780	0,023
43,850	-1,777	0,024
43,900	-1,761	0,023
43,950	-1,745	0,024
44,000	-1,737	0,023
44,050	-1,731	0,024
44,100	-1,729	0,023
44,150	-1,706	0,024
44,200	-1,686	0,024
44,250	-1,671	0,024
44,300	-1,668	0,023
44,350	-1,668	0,024
44,400	-1,666	0,023
44,450	-1,659	0,025
44,500	-1,659	0,024
44,550	-1,659	0,024
44,600	-1,659	0,023
44,650	-1,659	0,024
44,700	-1,659	0,023
44,750	-1,659	0,024
44,800	-1,659	0,024
44,850	-1,659	0,025
44,900	-1,659	0,024
44,950	-1,644	0,025
45,000	-1,610	0,024
45,050	-1,590	0,024
45,100	-1,559	0,023
45,150	-1,531	0,024
45,200	-1,518	0,023
45,250	-1,494	0,024
45,300	-1,462	0,023
45,350	-1,407	0,024
45,400	-1,383	0,023
45,450	-1,359	0,024
45,500	-1,345	0,023
45,550	-1,345	0,024
45,600	-1,345	0,023
45,650	-1,345	0,024
45,700	-1,344	0,023
45,750	-1,316	0,024
45,800	-1,299	0,023
45,850	-1,299	0,024
45,900	-1,300	0,023
45,950	-1,298	0,024
46,000	-1,278	0,023
46,050	-1,266	0,024
46,100	-1,247	0,023
46,150	-1,230	0,024
46,200	-1,215	0,023
46,250	-1,205	0,024
46,300	-1,176	0,023
46,350	-1,152	0,024
46,400	-1,120	0,023
46,450	-1,096	0,024
46,500	-1,084	0,023
46,550	-1,073	0,024
46,600	-1,072	0,023
46,650	-1,051	0,024
46,700	-1,031	0,023
46,750	-1,009	0,024
46,800	-0,979	0,023
46,850	-0,945	0,024
46,900	-0,921	0,022
46,950	-0,894	0,024
47,000	-0,879	0,023
47,050	-0,856	0,023
47,100	-0,830	0,022
47,150	-0,798	0,024
47,200	-0,793	0,022
47,250	-0,792	0,024
47,300	-0,778	0,022
47,350	-0,775	0,024
47,400	-0,766	0,022
47,450	-0,744	0,023
47,500	-0,731	0,022
47,550	-0,714	0,023
47,600	-0,700	0,022
47,650	-0,665	0,023
47,700	-0,640	0,022
47,750	-0,625	0,023
47,800	-0,616	0,022
47,850	-0,616	0,023
47,900	-0,616	0,022
47,950	-0,616	0,023
48,000	-0,616	0,022
48,050	-0,616	0,023
48,100	-0,608	0,022
48,150	-0,544	0,023
48,200	-0,499	0,022
48,250	-0,459	0,023
48,300	-0,417	0,022
48,350	-0,400	0,023
48,400	-0,370	0,022
48,450	-0,349	0,023
48,500	-0,330	0,022
48,550	-0,309	0,023
48,600	-0,285	0,022
48,650	-0,266	0,022
48,700	-0,236	0,022
48,750	-0,234	0,023
48,800	-0,209	0,022
48,850	-0,170	0,022
48,900	-0,138	0,021
48,950	-0,113	0,023
49,000	-0,111	0,022
49,050	-0,111	0,023
49,100	-0,100	0,022
49,150	-0,070	0,023
49,200	-0,054	0,022
49,250	-0,036	0,023
49,300	-0,036	0,022
49,350	-0,019	0,023
49,400	-0,010	0,021
49,450	-0,009	0,023
49,500	-0,010	0,021
49,550	-0,009	0,023
49,600	-0,009	0,022
49,650	-0,009	0,023
49,700	-0,009	0,022
49,750	-0,010	0,023
49,800	-0,010	0,022
49,850	-0,010	0,022
49,900	-0,010	0,022
49,950	-0,010	0,023
50,000	-0,010	0,022
50,050	-0,009	0,023
50,100	-0,009	0,022
50,150	-0,010	0,023
50,200	-0,010	0,022
50,250	-0,009	0,023
50,300	-0,009	0,022
50,350	-0,010	0,023
50,400	-0,010	0,022
50,450	-0,014	0,023
50,500	-0,014	0,022
50,550	-0,014	0,023
50,600	-0,014	0,022
50,650	-0,014	0,024
50,700	-0,014	0,022
50,750	-0,014	0,023
50,800	-0,014	0,022
50,850	-0,014	0,024
50,900	-0,014	0,022
50,950	-0,014	0,023
51,000	-0,014	0,022
51,050	-0,014	0,023
51,100	-0,014	0,022
51,150	-0,014	0,023
51,200	-0,014	0,023
51,250	-0,014	0,024
51,300	-0,014	0,022
51,350	-0,014	0,024
51,400	-0,013	0,022
51,450	0,013	0,023
51,500	0,016	0,022
51,550	0,015	0,023
51,600	0,047	0,023
51,650	0,103	0,023
51,700	0,104	0,022
51,750	0,117	0,023
51,800	0,150	0,022
51,850	0,158	0,023
51,900	0,158	0,022
51,950	0,164	0,023
52,000	0,193	0,022
52,050	0,217	0,023
52,100	0,228	0,022
52,150	0,232	0,023
52,200	0,232	0,022
52,250	0,236	0,023
52,300	0,252	0,022
52,350	0,277	0,023
52,400	0,289	0,022
52,450	0,297	0,023
52,500	0,313	0,022
52,550	0,337	0,023
52,600	0,339	0,022
52,650	0,364	0,023
52,700	0,369	0,022
52,750	0,369	0,023
52,800	0,377	0,022
52,850	0,388	0,023
52,900	0,402	0,022
52,950	0,421	0,023
53,000	0,444	0,022
53,050	0,468	0,023
53,100	0,472	0,022
53,150	0,475	0,023
53,200	0,480	0,022
53,250	0,497	0,023
53,300	0,534	0,022
53,350	0,555	0,023
53,400	0,556	0,022
53,450	0,556	0,023
53,500	0,555	0,022
53,550	0,555	0,023
53,600	0,555	0,022
53,650	0,565	0,023
53,700	0,578	0,022
53,750	0,600	0,023
53,800	0,628	0,022
53,850	0,650	0,023
53,900	0,665	0,022
53,950	0,666	0,023
54,000	0,666	0,022
54,050	0,666	0,023
54,100	0,666	0,022
54,150	0,666	0,023
54,200	0,666	0,022
54,250	0,666	0,023
54,300	0,666	0,022
54,350	0,666	0,023
54,400	0,666	0,022
54,450	0,667	0,023
54,500	0,696	0,022
54,550	0,728	0,023
54,600	0,779	0,022
54,650	0,819	0,023
54,700	0,850	0,022
54,750	0,874	0,023
54,800	0,880	0,022
54,850	0,891	0,023
54,900	0,915	0,022
54,950	0,949	0,023
55,000	0,992	0,021
55,050	1,017	0,022
55,100	1,050	0,022
55,150	1,077	0,022
55,200	1,123	0,022
55,250	1,195	0,022
55,300	1,255	0,021
55,350	1,261	0,022
55,400	1,262	0,021
55,450	1,261	0,022
55,500	1,262	0,021
55,550	1,262	0,022
55,600	1,262	0,021
55,650	1,262	0,022
55,700	1,273	0,021
55,750	1,282	0,022
55,800	1,297	0,021
55,850	1,297	0,022
55,900	1,304	0,021
55,950	1,320	0,022
56,000	1,329	0,021
56,050	1,330	0,022
56,100	1,334	0,021
56,150	1,342	0,022
56,200	1,354	0,021
56,250	1,372	0,022
56,300	1,390	0,021
56,350	1,392	0,022
56,400	1,400	0,021
56,450	1,413	0,022
56,500	1,414	0,021
56,550	1,414	0,022
56,600	1,414	0,021
56,650	1,416	0,022
56,700	1,446	0,021
56,750	1,463	0,022
56,800	1,475	0,021
56,850	1,496	0,022
56,900	1,499	0,021
56,950	1,507	0,022
57,000	1,508	0,021
57,050	1,508	0,023
57,100	1,508	0,021
57,150	1,524	0,022
57,200	1,525	0,021
57,250	1,525	0,022
57,300	1,525	0,021
57,350	1,525	0,022
57,400	1,526	0,021
57,450	1,525	0,022
57,500	1,535	0,021
57,550	1,559	0,022
57,600	1,571	0,021
57,650	1,596	0,022
57,700	1,632	0,022
57,750	1,651	0,022
57,800	1,653	0,021
57,850	1,652	0,022
57,900	1,653	0,021
57,950	1,652	0,022
58,000	1,652	0,021
58,050	1,654	0,022
58,100	1,663	0,021
58,150	1,678	0,022
58,200	1,700	0,021
58,250	1,731	0,022
58,300	1,744	0,021
58,350	1,744	0,022
58,400	1,770	0,021
58,450	1,800	0,022
58,500	1,829	0,021
58,550	1,857	0,022
58,600	1,880	0,021
58,650	1,912	0,022
58,700	1,952	0,020
58,750	1,984	0,022
58,800	1,996	0,021
58,850	1,996	0,021
58,900	1,997	0,021
58,950	1,997	0,022
59,000	1,998	0,021
59,050	2,007	0,022
59,100	2,020	0,021
59,150	2,027	0,022
59,200	2,031	0,021
59,250	2,033	0,022
59,300	2,035	0,021
59,350	2,049	0,021
59,400	2,064	0,021
59,450	2,081	0,022
59,500	2,089	0,021
59,550	2,096	0,022
59,600	2,109	0,021
59,650	2,118	0,022
59,700	2,133	0,021
59,750	2,136	0,022
59,800	2,137	0,021
59,850	2,137	0,022
59,900	2,141	0,021
59,950	2,156	0,021
60,000	2,191	0,021
60,050	2,205	0,022
60,100	2,208	0,021
60,150	2,208	0,022
60,200	2,217	0,021
60,250	2,240	0,022
60,300	2,248	0,021
60,350	2,248	0,022
60,400	2,263	0,021
60,450	2,277	0,021
60,500	2,296	0,021
60,550	2,314	0,021
60,600	2,319	0,021
60,650	2,320	0,022
60,700	2,340	0,021
60,750	2,364	0,022
60,800	2,377	0,021
60,850	2,377	0,022
60,900	2,383	0,021
60,950	2,400	0,022
61,000	2,415	0,021
61,050	2,422	0,022
61,100	2,423	0,021
61,150	2,443	0,022
61,200	2,462	0,021
61,250	2,478	0,021
61,300	2,486	0,021
61,350	2,500	0,022
61,400	2,520	0,021
61,450	2,528	0,021
61,500	2,533	0,021
61,550	2,541	0,021
61,600	2,542	0,021
61,650	2,542	0,021
61,700	2,562	0,021
61,750	2,573	0,021
61,800	2,576	0,021
61,850	2,583	0,021
61,900	2,591	0,021
61,950	2,599	0,021
62,000	2,608	0,021
62,050	2,608	0,022
62,100	2,608	0,021
62,150	2,613	0,022
62,200	2,633	0,021
62,250	2,650	0,022
62,300	2,663	0,020
62,350	2,667	0,021
62,400	2,672	0,021
62,450	2,702	0,022
62,500	2,734	0,021
62,550	2,774	0,021
62,600	2,784	0,021
62,650	2,796	0,021
62,700	2,800	0,021
62,750	2,800	0,021
62,800	2,801	0,021
62,850	2,830	0,021
62,900	2,834	0,021
62,950	2,834	0,021
63,000	2,832	0,021
63,050	2,832	0,021
63,100	2,852	0,021
63,150	2,875	0,021
63,200	2,880	0,021
63,250	2,880	0,021
63,300	2,883	0,021
63,350	2,932	0,021
63,400	2,997	0,021
63,450	3,000	0,021
63,500	3,000	0,020
63,550	3,000	0,021
63,600	3,000	0,021
63,650	3,000	0,021
63,700	3,000	0,021
63,750	3,000	0,021
63,800	3,000	0,021
63,850	3,000	0,021
63,900	3,007	0,021
63,950	3,024	0,021
64,000	3,039	0,021
64,050	3,040	0,021
64,100	3,040	0,021
64,150	3,051	0,021
64,200	3,054	0,021
64,250	3,055	0,021
64,300	3,070	0,021
64,350	3,086	0,021
64,400	3,090	0,021
64,450	3,102	0,021
64,500	3,139	0,021
64,550	3,172	0,021
64,600	3,202	0,021
64,650	3,236	0,021
64,700	3,252	0,020
64,750	3,265	0,021
64,800	3,292	0,021
64,850	3,298	0,021
64,900	3,304	0,020
64,950	3,307	0,021
65,000	3,307	0,021
65,050	3,309	0,021
65,100	3,314	0,021
65,150	3,323	0,021
65,200	3,366	0,020
65,250	3,396	0,021
65,300	3,400	0,020
65,350	3,400	0,021
65,400	3,413	0,021
65,450	3,448	0,021
65,500	3,457	0,020
65,550	3,457	0,021
65,600	3,457	0,020
65,650	3,457	0,021
65,700	3,457	0,021
65,750	3,457	0,021
65,800	3,457	0,021
65,850	3,457	0,021
65,900	3,459	0,021
65,950	3,470	0,021
66,000	3,488	0,021
66,050	3,505	0,021
66,100	3,536	0,021
66,150	3,574	0,021
66,200	3,597	0,021
66,250	3,619	0,021
66,300	3,637	0,020
66,350	3,642	0,021
66,400	3,658	0,021
66,450	3,673	0,021
66,500	3,677	0,021
66,550	3,681	0,021
66,600	3,690	0,021
66,650	3,702	0,021
66,700	3,716	0,021
66,750	3,722	0,021
66,800	3,739	0,020
66,850	3,750	0,021
66,900	3,759	0,020
66,950	3,762	0,021
67,000	3,772	0,020
67,050	3,774	0,021
67,100	3,777	0,021
67,150	3,780	0,021
67,200	3,784	0,021
67,250	3,795	0,021
67,300	3,802	0,021
67,350	3,819	0,021
67,400	3,842	0,021
67,450	3,862	0,021
67,500	3,896	0,021
67,550	3,920	0,021
67,600	3,951	0,020
67,650	3,981	0,021
67,700	4,003	0,020
67,750	4,018	0,020
67,800	4,020	0,020
67,850	4,019	0,020
67,900	4,021	0,020
67,950	4,049	0,021
68,000	4,087	0,020
68,050	4,090	0,020
68,100	4,092	0,020
68,150	4,110	0,020
68,200	4,143	0,020
68,250	4,162	0,020
68,300	4,186	0,020
68,350	4,215	0,020
68,400	4,233	0,020
68,450	4,259	0,020
68,500	4,281	0,020
68,550	4,287	0,020
68,600	4,298	0,020
68,650	4,311	0,020
68,700	4,312	0,020
68,750	4,324	0,020
68,800	4,335	0,020
68,850	4,338	0,020
68,900	4,357	0,020
68,950	4,375	0,020
69,000	4,398	0,020
69,050	4,434	0,020
69,100	4,467	0,020
69,150	4,499	0,020
69,200	4,556	0,020
69,250	4,627	0,020
69,300	4,680	0,019
69,350	4,705	0,020
69,400	4,727	0,019
69,450	4,753	0,019
69,500	4,760	0,019
69,550	4,767	0,019
69,600	4,789	0,019
69,650	4,805	0,019
69,700	4,816	0,019
69,750	4,817	0,019
69,800	4,832	0,019
69,850	4,845	0,019
69,900	4,850	0,019
69,950	4,864	0,019
70,000	4,885	0,019
70,050	4,893	0,019
70,100	4,901	0,019
70,150	4,914	0,019
70,200	4,915	0,019
70,250	4,916	0,019
70,300	4,941	0,019
70,350	4,955	0,019
70,400	4,971	0,019
70,450	5,011	0,019
70,500	5,050	0,019
70,550	5,079	0,019
70,600	5,126	0,019
70,650	5,157	0,019
70,700	5,185	0,018
70,750	5,209	0,018
70,800	5,214	0,018
70,850	5,214	0,019
70,900	5,214	0,019
70,950	5,214	0,019
71,000	5,214	0,018
71,050	5,216	0,019
71,100	5,240	0,018
71,150	5,312	0,019
71,200	5,386	0,018
71,250	5,431	0,018
71,300	5,453	0,018
71,350	5,456	0,018
71,400	5,456	0,018
71,450	5,456	0,018
71,500	5,456	0,018
71,550	5,456	0,018
71,600	5,459	0,018
71,650	5,473	0,018
71,700	5,474	0,018
71,750	5,474	0,018
71,800	5,474	0,018
71,850	5,474	0,018
71,900	5,474	0,018
71,950	5,474	0,019
72,000	5,474	0,018
72,050	5,474	0,019
72,100	5,474	0,018
72,150	5,475	0,018
72,200	5,475	0,019
72,250	5,475	0,018
72,300	5,478	0,018
72,350	5,478	0,019
72,400	5,489	0,018
72,450	5,523	0,019
72,500	5,547	0,018
72,550	5,561	0,018
72,600	5,585	0,018
72,650	5,603	0,018
72,700	5,620	0,018
72,750	5,626	0,018
72,800	5,631	0,018
72,850	5,631	0,018
72,900	5,631	0,018
72,950	5,635	0,019
73,000	5,649	0,018
73,050	5,660	0,019
73,100	5,677	0,018
73,150	5,690	0,019
73,200	5,700	0,018
73,250	5,701	0,019
73,300	5,703	0,018
73,350	5,716	0,019
73,400	5,734	0,018
73,450	5,737	0,018
73,500	5,745	0,018
73,550	5,747	0,018
73,600	5,748	0,018
73,650	5,761	0,019
73,700	5,773	0,018
73,750	5,777	0,018
73,800	5,777	0,018
73,850	5,790	0,018
73,900	5,795	0,019
73,950	5,795	0,018
74,000	5,797	0,019
74,050	5,818	0,019
74,100	5,831	0,018
74,150	5,832	0,019
74,200	5,833	0,019
74,250	5,845	0,019
74,300	5,847	0,018
74,350	5,849	0,019
74,400	5,850	0,019
74,450	5,849	0,019
74,500	5,849	0,018
74,550	5,849	0,019
74,600	5,850	0,019
74,650	5,849	0,019
74,700	5,849	0,019
74,750	5,853	0,019
74,800	5,893	0,018
74,850	5,925	0,019
74,900	5,936	0,018
74,950	5,939	0,019
75,000	5,939	0,018
75,050	5,944	0,019
75,100	5,960	0,018
75,150	5,977	0,019
75,200	5,991	0,018
75,250	6,005	0,019
75,300	6,036	0,019
75,350	6,052	0,019
75,400	6,053	0,018
75,450	6,053	0,019
75,500	6,053	0,019
75,550	6,054	0,019
75,600	6,054	0,019
75,650	6,054	0,019
75,700	6,054	0,019
75,750	6,062	0,019
75,800	6,090	0,019
75,850	6,106	0,019
75,900	6,126	0,019
75,950	6,134	0,019
76,000	6,139	0,019
76,050	6,148	0,019
76,100	6,153	0,019
76,150	6,168	0,019
76,200	6,188	0,019
76,250	6,193	0,019
76,300	6,195	0,019
76,350	6,200	0,019
76,400	6,205	0,019
76,450	6,209	0,019
76,500	6,214	0,019
76,550	6,216	0,019
76,600	6,237	0,019
76,650	6,254	0,019
76,700	6,275	0,019
76,750	6,292	0,019
76,800	6,294	0,019
76,850	6,295	0,019
76,900	6,296	0,019
76,950	6,300	0,019
77,000	6,303	0,019
77,050	6,304	0,019
77,100	6,324	0,019
77,150	6,346	0,019
77,200	6,349	0,019
77,250	6,354	0,019
77,300	6,370	0,019
77,350	6,385	0,019
77,400	6,395	0,019
77,450	6,408	0,019
77,500	6,411	0,019
77,550	6,413	0,019
77,600	6,428	0,019
77,650	6,447	0,019
77,700	6,452	0,019
77,750	6,456	0,019
77,800	6,467	0,019
77,850	6,479	0,019
77,900	6,490	0,019
77,950	6,501	0,019
78,000	6,503	0,019
78,050	6,504	0,019
78,100	6,511	0,019
78,150	6,534	0,019
78,200	6,567	0,019
78,250	6,572	0,019
78,300	6,572	0,019
78,350	6,572	0,019
78,400	6,572	0,019
78,450	6,572	0,019
78,500	6,573	0,019
78,550	6,589	0,019
78,600	6,615	0,019
78,650	6,636	0,019
78,700	6,650	0,019
78,750	6,658	0,019
78,800	6,663	0,019
78,850	6,665	0,019
78,900	6,667	0,019
78,950	6,667	0,019
79,000	6,668	0,019
79,050	6,667	0,019
79,100	6,668	0,019
79,150	6,668	0,019
79,200	6,669	0,019
79,250	6,668	0,019
79,300	6,669	0,019
79,350	6,668	0,019
79,400	6,668	0,019
79,450	6,668	0,019
79,500	6,669	0,019
79,550	6,668	0,019
79,600	6,669	0,019
79,650	6,668	0,019
79,700	6,669	0,019
79,750	6,668	0,019
79,800	6,669	0,019
79,850	6,668	0,020
79,900	6,669	0,019
79,950	6,668	0,020
80,000	6,669	0,019
80,050	6,668	0,020
80,100	6,669	0,019
80,150	6,669	0,020
80,200	6,669	0,020
80,250	6,666	0,020
80,300	6,641	0,020
80,350	6,617	0,020
80,400	6,599	0,020
80,450	6,584	0,020
80,500	6,564	0,020
80,550	6,557	0,020
80,600	6,521	0,020
80,650	6,469	0,020
80,700	6,434	0,020
80,750	6,384	0,020
80,800	6,315	0,020
80,850	6,286	0,021
80,900	6,285	0,021
80,950	6,284	0,021
81,000	6,267	0,021
81,050	6,254	0,021
81,100	6,252	0,021
81,150	6,252	0,021
81,200	6,252	0,021
81,250	6,252	0,021
81,300	6,252	0,021
81,350	6,252	0,021
81,400	6,251	0,021
81,450	6,239	0,021
81,500	6,219	0,021
81,550	6,211	0,021
81,600	6,211	0,021
81,650	6,211	0,022
81,700	6,211	0,021
81,750	6,210	0,021
81,800	6,210	0,021
81,850	6,201	0,022
81,900	6,197	0,021
81,950	6,197	0,022
82,000	6,197	0,022
82,050	6,197	0,022
82,100	6,197	0,022
82,150	6,197	0,022
82,200	6,197	0,021
82,250	6,176	0,022
82,300	6,154	0,022
82,350	6,152	0,022
82,400	6,134	0,022
82,450	6,111	0,022
82,500	6,104	0,022
82,550	6,103	0,022
82,600	6,087	0,022
82,650	6,084	0,022
82,700	6,085	0,022
82,750	6,085	0,022
82,800	6,085	0,022
82,850	6,077	0,022
82,900	6,055	0,022
82,950	6,042	0,022
83,000	6,041	0,023
83,050	6,031	0,023
83,100	6,001	0,023
83,150	5,987	0,023
83,200	5,986	0,023
83,250	5,986	0,022
83,300	5,986	0,023
83,350	5,987	0,023
83,400	5,986	0,023
83,450	5,987	0,023
83,500	5,987	0,023
83,550	5,986	0,023
83,600	5,987	0,023
83,650	5,977	0,023
83,700	5,936	0,023
83,750	5,889	0,023
83,800	5,863	0,023
83,850	5,862	0,023
83,900	5,862	0,023
83,950	5,861	0,023
84,000	5,842	0,023
84,050	5,837	0,023
84,100	5,811	0,023
84,150	5,784	0,023
84,200	5,773	0,024
84,250	5,772	0,023
84,300	5,773	0,024
84,350	5,773	0,024
84,400	5,768	0,024
84,450	5,759	0,024
84,500	5,759	0,024
84,550	5,760	0,024
84,600	5,759	0,024
84,650	5,759	0,024
84,700	5,759	0,024
84,750	5,759	0,024
84,800	5,759	0,024
84,850	5,759	0,024
84,900	5,759	0,024
84,950	5,741	0,024
85,000	5,737	0,024
85,050	5,737	0,024
85,100	5,727	0,024
85,150	5,716	0,024
85,200	5,710	0,024
85,250	5,707	0,024
85,300	5,707	0,024
85,350	5,702	0,024
85,400	5,693	0,024
85,450	5,690	0,024
85,500	5,679	0,024
85,550	5,659	0,024
85,600	5,638	0,025
85,650	5,627	0,024
85,700	5,620	0,024
85,750	5,613	0,025
85,800	5,613	0,024
85,850	5,612	0,024
85,900	5,611	0,025
85,950	5,599	0,025
86,000	5,588	0,025
86,050	5,577	0,025
86,100	5,569	0,025
86,150	5,543	0,024
86,200	5,540	0,025
86,250	5,540	0,025
86,300	5,536	0,025
86,350	5,521	0,025
86,400	5,517	0,025
86,450	5,501	0,025
86,500	5,487	0,025
86,550	5,477	0,025
86,600	5,474	0,025
86,650	5,472	0,025
86,700	5,461	0,025
86,750	5,452	0,026
86,800	5,452	0,025
86,850	5,452	0,026
86,900	5,443	0,025
86,950	5,434	0,025
87,000	5,425	0,025
87,050	5,405	0,025
87,100	5,393	0,025
87,150	5,381	0,025
87,200	5,375	0,025
87,250	5,371	0,026
87,300	5,361	0,026
87,350	5,344	0,026
87,400	5,329	0,026
87,450	5,318	0,026
87,500	5,296	0,026
87,550	5,282	0,026
87,600	5,279	0,026
87,650	5,268	0,026
87,700	5,264	0,026
87,750	5,264	0,026
87,800	5,257	0,026
87,850	5,250	0,026
87,900	5,250	0,026
87,950	5,250	0,026
88,000	5,250	0,026
88,050	5,250	0,026
88,100	5,251	0,026
88,150	5,251	0,027
88,200	5,251	0,027
88,250	5,250	0,026
88,300	5,251	0,027
88,350	5,239	0,027
88,400	5,208	0,027
88,450	5,177	0,027
88,500	5,148	0,027
88,550	5,128	0,027
88,600	5,110	0,027
88,650	5,087	0,027
88,700	5,069	0,027
88,750	5,055	0,027
88,800	5,026	0,027
88,850	5,006	0,028
88,900	5,000	0,027
88,950	4,983	0,027
89,000	4,967	0,027
89,050	4,960	0,028
89,100	4,943	0,027
89,150	4,920	0,028
89,200	4,899	0,027
89,250	4,883	0,028
89,300	4,879	0,027
89,350	4,879	0,028
89,400	4,879	0,028
89,450	4,879	0,028
89,500	4,879	0,028
89,550	4,879	0,028
89,600	4,879	0,028
89,650	4,869	0,028
89,700	4,836	0,028
89,750	4,812	0,028
89,800	4,789	0,028
89,850	4,758	0,029
89,900	4,726	0,029
89,950	4,685	0,029
90,000	4,643	0,028
90,050	4,598	0,029
90,100	4,535	0,029
90,150	4,503	0,029
90,200	4,500	0,029
90,250	4,500	0,029
90,300	4,500	0,029
90,350	4,500	0,029
90,400	4,486	0,029
90,450	4,439	0,030
90,500	4,391	0,029
90,550	4,388	0,030
90,600	4,385	0,029
90,650	4,383	0,030
90,700	4,373	0,030
90,750	4,367	0,030
90,800	4,363	0,030
90,850	4,349	0,030
90,900	4,342	0,030
90,950	4,331	0,030
91,000	4,311	0,030
91,050	4,281	0,030
91,100	4,269	0,030
91,150	4,269	0,030
91,200	4,269	0,030
91,250	4,256	0,030
91,300	4,232	0,030
91,350	4,218	0,031
91,400	4,216	0,030
91,450	4,216	0,030
91,500	4,216	0,030
91,550	4,216	0,031
91,600	4,216	0,031
91,650	4,213	0,031
91,700	4,211	0,031
91,750	4,211	0,031
91,800	4,211	0,031
91,850	4,210	0,031
91,900	4,211	0,031
91,950	4,207	0,031
92,000	4,176	0,031
92,050	4,130	0,031
92,100	4,109	0,031
92,150	4,072	0,031
92,200	4,026	0,031
92,250	3,989	0,032
92,300	3,977	0,031
92,350	3,942	0,032
92,400	3,903	0,031
92,450	3,897	0,032
92,500	3,896	0,031
92,550	3,896	0,032
92,600	3,888	0,032
92,650	3,859	0,032
92,700	3,842	0,032
92,750	3,837	0,033
92,800	3,823	0,032
92,850	3,804	0,033
92,900	3,772	0,032
92,950	3,731	0,032
93,000	3,697	0,032
93,050	3,666	0,033
93,100	3,633	0,032
93,150	3,618	0,033
93,200	3,618	0,032
93,250	3,617	0,033
93,300	3,618	0,032
93,350	3,617	0,033
93,400	3,591	0,033
93,450	3,557	0,033
93,500	3,556	0,033
93,550	3,555	0,033
93,600	3,543	0,033
93,650	3,506	0,033
93,700	3,489	0,033
93,750	3,488	0,033
93,800	3,483	0,033
93,850	3,458	0,034
93,900	3,457	0,033
93,950	3,457	0,034
94,000	3,457	0,033
94,050	3,452	0,034
94,100	3,416	0,034
94,150	3,391	0,034
94,200	3,387	0,034
94,250	3,387	0,034
94,300	3,387	0,034
94,350	3,387	0,034
94,400	3,387	0,034
94,450	3,387	0,034
94,500	3,387	0,033
94,550	3,387	0,035
94,600	3,387	0,034
94,650	3,387	0,034
94,700	3,376	0,034
94,750	3,364	0,035
94,800	3,364	0,034
94,850	3,348	0,035
94,900	3,311	0,034
94,950	3,285	0,035
95,000	3,271	0,034
95,050	3,249	0,035
95,100	3,239	0,034
95,150	3,239	0,035
95,200	3,207	0,034
95,250	3,177	0,035
95,300	3,177	0,034
95,350	3,165	0,035
95,400	3,137	0,034
95,450	3,117	0,036
95,500	3,091	0,035
95,550	3,080	0,036
95,600	3,070	0,035
95,650	3,042	0,036
95,700	3,038	0,035
95,750	3,025	0,036
95,800	3,006	0,035
95,850	3,004	0,036
95,900	3,000	0,035
95,950	2,986	0,036
96,000	2,980	0,035
96,050	2,974	0,036
96,100	2,969	0,035
96,150	2,958	0,036
96,200	2,948	0,035
96,250	2,946	0,036
96,300	2,936	0,035
96,350	2,924	0,036
96,400	2,902	0,036
96,450	2,885	0,036
96,500	2,885	0,036
96,550	2,885	0,037
96,600	2,872	0,036
96,650	2,851	0,037
96,700	2,835	0,036
96,750	2,822	0,037
96,800	2,818	0,036
96,850	2,807	0,037
96,900	2,793	0,036
96,950	2,784	0,037
97,000	2,762	0,036
97,050	2,760	0,037
97,100	2,760	0,036
97,150	2,730	0,037
97,200	2,719	0,036
97,250	2,701	0,037
97,300	2,646	0,037
97,350	2,588	0,037
97,400	2,564	0,037
97,450	2,564	0,038
97,500	2,564	0,037
97,550	2,564	0,038
97,600	2,564	0,037
97,650	2,564	0,038
97,700	2,564	0,037
97,750	2,564	0,038
97,800	2,547	0,037
97,850	2,502	0,038
97,900	2,485	0,037
97,950	2,446	0,038
98,000	2,412	0,037
98,050	2,370	0,039
98,100	2,333	0,038
98,150	2,319	0,039
98,200	2,319	0,038
98,250	2,313	0,039
98,300	2,294	0,038
98,350	2,272	0,039
98,400	2,246	0,038
98,450	2,221	0,039
98,500	2,193	0,038
98,550	2,168	0,040
98,600	2,163	0,039
98,650	2,154	0,039
98,700	2,134	0,039
98,750	2,115	0,040
98,800	2,074	0,039
98,850	2,065	0,040
98,900	2,065	0,039
98,950	2,065	0,040
99,000	2,065	0,039
99,050	2,053	0,040
99,100	2,029	0,039
99,150	2,010	0,040
99,200	1,991	0,039
99,250	1,961	0,040
99,300	1,933	0,039
99,350	1,899	0,040
99,400	1,868	0,040
99,450	1,836	0,041
99,500	1,799	0,040
99,550	1,761	0,041
99,600	1,744	0,040
99,650	1,743	0,041
99,700	1,743	0,040
99,750	1,728	0,041
99,800	1,711	0,040
99,850	1,689	0,041
99,900	1,677	0,040
99,950	1,669	0,042
100,000	1,657	0,040
100,050	1,654	0,042
100,100	1,654	0,040
100,150	1,654	0,041
100,200	1,654	0,041
100,250	1,654	0,042
100,300	1,655	0,041
100,350	1,655	0,042
100,400	1,644	0,041
100,450	1,626	0,042
100,500	1,619	0,041
100,550	1,619	0,042
100,600	1,608	0,041
100,650	1,576	0,042
100,700	1,561	0,041
100,750	1,538	0,042
100,800	1,514	0,041
100,850	1,490	0,042
100,900	1,471	0,041
100,950	1,455	0,043
101,000	1,431	0,042
101,050	1,400	0,043
101,100	1,368	0,042
101,150	1,348	0,043
101,200	1,333	0,042
101,250	1,334	0,043
101,300	1,334	0,042
101,350	1,334	0,043
101,400	1,334	0,042
101,450	1,334	0,043
101,500	1,334	0,042
101,550	1,330	0,043
101,600	1,330	0,042
101,650	1,330	0,043
101,700	1,336	0,042
101,750	1,330	0,043
101,800	1,316	0,042
101,850	1,302	0,043
101,900	1,293	0,042
101,950	1,284	0,043
102,000	1,285	0,042
102,050	1,280	0,043
102,100	1,251	0,043
102,150	1,225	0,043
102,200	1,212	0,043
102,250	1,201	0,044
102,300	1,181	0,043
102,350	1,140	0,044
102,400	1,088	0,043
102,450	1,046	0,044
102,500	1,037	0,043
102,550	1,035	0,044
102,600	1,036	0,043
102,650	1,034	0,044
102,700	1,032	0,043
102,750	1,032	0,044
102,800	1,026	0,043
102,850	0,987	0,044
102,900	0,959	0,044
102,950	0,929	0,045
103,000	0,885	0,044
103,050	0,837	0,045
103,100	0,800	0,044
103,150	0,765	0,045
103,200	0,720	0,045
103,250	0,708	0,046
103,300	0,707	0,044
103,350	0,700	0,046
103,400	0,678	0,045
103,450	0,652	0,045
103,500	0,629	0,045
103,550	0,591	0,046
103,600	0,538	0,045
103,650	0,491	0,046
103,700	0,480	0,045
103,750	0,453	0,046
103,800	0,431	0,045
103,850	0,422	0,046
103,900	0,423	0,045
103,950	0,422	0,046
104,000	0,406	0,045
104,050	0,379	0,046
104,100	0,372	0,045
104,150	0,365	0,047
104,200	0,360	0,045
104,250	0,348	0,047
104,300	0,341	0,045
104,350	0,325	0,047
104,400	0,311	0,046
104,450	0,290	0,047
104,500	0,271	0,046
104,550	0,238	0,047
104,600	0,228	0,046
104,650	0,210	0,047
104,700	0,195	0,046
104,750	0,187	0,047
104,800	0,171	0,046
104,850	0,166	0,047
104,900	0,158	0,046
104,950	0,145	0,047
105,000	0,133	0,047
105,050	0,122	0,047
105,100	0,121	0,047
105,150	0,120	0,048
105,200	0,109	0,047
105,250	0,108	0,047
105,300	0,108	0,047
105,350	0,108	0,048
105,400	0,108	0,047
105,450	0,108	0,048
105,500	0,103	0,047
105,550	0,050	0,048
105,600	0,016	0,047
105,650	0,015	0,048
105,700	0,012	0,047
105,750	0,012	0,048
105,800	0,012	0,047
105,850	0,012	0,048
105,900	0,012	0,047
105,950	0,012	0,048
106,000	0,012	0,047
106,050	0,012	0,048
106,100	0,012	0,047
106,150	0,012	0,048
106,200	0,012	0,048
106,250	0,012	0,049
106,300	0,012	0,047
106,350	0,012	0,049
106,400	0,012	0,047
106,450	0,012	0,048
106,500	0,013	0,047
106,550	0,014	0,049
106,600	0,015	0,047
106,650	0,014	0,049
106,700	0,014	0,048
106,750	0,014	0,049
106,800	0,014	0,048
106,850	0,014	0,049
106,900	0,013	0,048
106,950	-0,012	0,049
107,000	-0,013	0,048
107,050	-0,014	0,049
107,100	-0,041	0,048
107,150	-0,075	0,049
107,200	-0,105	0,048
107,250	-0,128	0,049
107,300	-0,146	0,048
107,350	-0,162	0,050
107,400	-0,179	0,049
107,450	-0,199	0,050
107,500	-0,206	0,049
107,550	-0,209	0,050
107,600	-0,209	0,049
107,650	-0,209	0,050
107,700	-0,210	0,049
107,750	-0,210	0,050
107,800	-0,212	0,049
107,850	-0,214	0,050
107,900	-0,215	0,049
107,950	-0,226	0,050
108,000	-0,226	0,049
108,050	-0,227	0,050
108,100	-0,240	0,049
108,150	-0,259	0,050
108,200	-0,276	0,049
108,250	-0,301	0,050
108,300	-0,325	0,049
108,350	-0,351	0,050
108,400	-0,375	0,049
108,450	-0,397	0,050
108,500	-0,433	0,049
108,550	-0,480	0,051
108,600	-0,512	0,050
108,650	-0,514	0,051
108,700	-0,525	0,050
108,750	-0,528	0,051
108,800	-0,528	0,050
108,850	-0,535	0,051
108,900	-0,562	0,050
108,950	-0,572	0,051
109,000	-0,572	0,050
109,050	-0,578	0,051
109,100	-0,594	0,050
109,150	-0,616	0,051
109,200	-0,634	0,050
109,250	-0,651	0,052
109,300	-0,661	0,051
109,350	-0,678	0,052
109,400	-0,696	0,051
109,450	-0,713	0,052
109,500	-0,728	0,051
109,550	-0,732	0,052
109,600	-0,732	0,051
109,650	-0,732	0,052
109,700	-0,732	0,051
109,750	-0,732	0,052
109,800	-0,732	0,051
109,850	-0,732	0,052
109,900	-0,737	0,051
109,950	-0,757	0,052
110,000	-0,778	0,051
110,050	-0,803	0,052
110,100	-0,816	0,051
110,150	-0,839	0,052
110,200	-0,853	0,051
110,250	-0,856	0,052
110,300	-0,869	0,051
110,350	-0,885	0,052
110,400	-0,894	0,051
110,450	-0,906	0,052
110,500	-0,917	0,052
110,550	-0,941	0,053
110,600	-0,961	0,052
110,650	-0,989	0,053
110,700	-1,027	0,052
110,750	-1,064	0,053
110,800	-1,088	0,052
110,850	-1,101	0,053
110,900	-1,107	0,052
110,950	-1,118	0,053
111,000	-1,130	0,052
111,050	-1,151	0,053
111,100	-1,163	0,052
111,150	-1,179	0,053
111,200	-1,187	0,053
111,250	-1,191	0,054
111,300	-1,199	0,052
111,350	-1,204	0,054
111,400	-1,206	0,053
111,450	-1,208	0,054
111,500	-1,219	0,053
111,550	-1,232	0,054
111,600	-1,243	0,053
111,650	-1,261	0,054
111,700	-1,291	0,053
111,750	-1,307	0,054
111,800	-1,308	0,053
111,850	-1,318	0,054
111,900	-1,348	0,054
111,950	-1,360	0,055
112,000	-1,367	0,053
112,050	-1,394	0,054
112,100	-1,419	0,053
112,150	-1,437	0,055
112,200	-1,458	0,053
112,250	-1,475	0,055
112,300	-1,486	0,054
112,350	-1,502	0,055
112,400	-1,522	0,054
112,450	-1,534	0,055
112,500	-1,546	0,054
112,550	-1,563	0,055
112,600	-1,574	0,054
112,650	-1,588	0,055
112,700	-1,588	0,054
112,750	-1,614	0,055
112,800	-1,644	0,054
112,850	-1,658	0,056
112,900	-1,665	0,054
112,950	-1,697	0,056
113,000	-1,732	0,055
113,050	-1,749	0,056
113,100	-1,798	0,055
113,150	-1,860	0,056
113,200	-1,874	0,055
113,250	-1,874	0,056
113,300	-1,879	0,055
113,350	-1,891	0,056
113,400	-1,902	0,055
113,450	-1,927	0,057
113,500	-1,945	0,055
113,550	-1,950	0,056
113,600	-1,977	0,056
113,650	-2,018	0,057
113,700	-2,029	0,056
113,750	-2,029	0,057
113,800	-2,029	0,055
113,850	-2,029	0,057
113,900	-2,029	0,056
113,950	-2,029	0,057
114,000	-2,029	0,056
114,050	-2,040	0,057
114,100	-2,072	0,056
114,150	-2,083	0,057
114,200	-2,090	0,056
114,250	-2,121	0,057
114,300	-2,123	0,056
114,350	-2,135	0,057
114,400	-2,162	0,056
114,450	-2,177	0,057
114,500	-2,193	0,057
114,550	-2,233	0,058
114,600	-2,259	0,057
114,650	-2,291	0,058
114,700	-2,324	0,057
114,750	-2,351	0,058
114,800	-2,404	0,057
114,850	-2,467	0,058
114,900	-2,518	0,057
114,950	-2,551	0,059
115,000	-2,592	0,057
115,050	-2,661	0,059
115,100	-2,701	0,058
115,150	-2,717	0,059
115,200	-2,740	0,058
115,250	-2,744	0,059
115,300	-2,744	0,058
115,350	-2,744	0,059
115,400	-2,743	0,058
115,450	-2,744	0,059
115,500	-2,744	0,058
115,550	-2,743	0,059
115,600	-2,751	0,058
115,650	-2,753	0,059
115,700	-2,753	0,058
115,750	-2,766	0,059
115,800	-2,769	0,058
115,850	-2,770	0,059
115,900	-2,770	0,058
115,950	-2,770	0,060
116,000	-2,770	0,058
116,050	-2,772	0,059
116,100	-2,789	0,058
116,150	-2,796	0,060
116,200	-2,805	0,058
116,250	-2,829	0,060
116,300	-2,841	0,058
116,350	-2,842	0,060
116,400	-2,850	0,059
116,450	-2,851	0,060
116,500	-2,851	0,059
116,550	-2,859	0,060
116,600	-2,890	0,059
116,650	-2,905	0,060
116,700	-2,912	0,059
116,750	-2,940	0,060
116,800	-2,964	0,059
116,850	-2,989	0,060
116,900	-2,996	0,059
116,950	-3,002	0,060
117,000	-3,022	0,059
117,050	-3,049	0,061
117,100	-3,077	0,059
117,150	-3,108	0,061
117,200	-3,150	0,060
117,250	-3,204	0,061
117,300	-3,269	0,060
117,350	-3,321	0,061
117,400	-3,359	0,060
117,450	-3,401	0,062
117,500	-3,423	0,061
117,550	-3,425	0,062
117,600	-3,431	0,061
117,650	-3,453	0,062
117,700	-3,465	0,061
117,750	-3,478	0,062
117,800	-3,490	0,061
117,850	-3,490	0,062
117,900	-3,492	0,061
117,950	-3,495	0,062
118,000	-3,495	0,061
118,050	-3,495	0,062
118,100	-3,496	0,061
118,150	-3,497	0,062
118,200	-3,517	0,061
118,250	-3,545	0,062
118,300	-3,584	0,061
118,350	-3,617	0,063
118,400	-3,641	0,062
118,450	-3,648	0,062
118,500	-3,648	0,061
118,550	-3,648	0,063
118,600	-3,648	0,062
118,650	-3,648	0,063
118,700	-3,648	0,062
118,750	-3,658	0,063
118,800	-3,701	0,062
118,850	-3,773	0,063
118,900	-3,826	0,062
118,950	-3,880	0,064
119,000	-3,922	0,063
119,050	-3,979	0,064
119,100	-4,004	0,063
119,150	-4,005	0,064
119,200	-4,005	0,063
119,250	-4,005	0,064
119,300	-4,005	0,063
119,350	-4,005	0,064
119,400	-4,005	0,062
119,450	-4,007	0,064
119,500	-4,047	0,063
119,550	-4,081	0,064
119,600	-4,121	0,063
119,650	-4,161	0,064
119,700	-4,182	0,063
119,750	-4,203	0,065
119,800	-4,238	0,063
119,850	-4,241	0,065
119,900	-4,252	0,063
119,950	-4,302	0,065
120,000	-4,345	0,064
120,050	-4,396	0,065
120,100	-4,428	0,064
120,150	-4,431	0,065
120,200	-4,431	0,064
120,250	-4,435	0,065
120,300	-4,436	0,064
120,350	-4,436	0,065
120,400	-4,436	0,064
120,450	-4,436	0,065
120,500	-4,435	0,064
120,550	-4,465	0,065
120,600	-4,506	0,064
120,650	-4,543	0,065
120,700	-4,578	0,064
120,750	-4,600	0,066
120,800	-4,601	0,065
120,850	-4,601	0,066
120,900	-4,601	0,065
120,950	-4,601	0,066
121,000	-4,608	0,065
121,050	-4,649	0,066
121,100	-4,720	0,065
121,150	-4,794	0,066
121,200	-4,820	0,065
121,250	-4,820	0,066
121,300	-4,820	0,065
121,350	-4,820	0,066
121,400	-4,820	0,066
121,450	-4,820	0,067
121,500	-4,820	0,065
121,550	-4,850	0,066
121,600	-4,915	0,066
121,650	-4,955	0,067
121,700	-4,978	0,066
121,750	-5,018	0,067
121,800	-5,030	0,066
121,850	-5,029	0,067
121,900	-5,030	0,066
121,950	-5,029	0,067
122,000	-5,042	0,066
122,050	-5,053	0,067
122,100	-5,055	0,066
122,150	-5,072	0,067
122,200	-5,079	0,066
122,250	-5,080	0,068
122,300	-5,080	0,066
122,350	-5,080	0,068
122,400	-5,081	0,066
122,450	-5,081	0,068
122,500	-5,081	0,066
122,550	-5,083	0,068
122,600	-5,083	0,067
122,650	-5,083	0,068
122,700	-5,105	0,067
122,750	-5,123	0,068
122,800	-5,153	0,067
122,850	-5,156	0,068
122,900	-5,175	0,067
122,950	-5,205	0,068
123,000	-5,223	0,067
123,050	-5,272	0,068
123,100	-5,292	0,067
123,150	-5,319	0,068
123,200	-5,359	0,067
123,250	-5,378	0,069
123,300	-5,379	0,068
123,350	-5,380	0,069
123,400	-5,380	0,068
123,450	-5,381	0,069
123,500	-5,381	0,068
123,550	-5,381	0,069
123,600	-5,398	0,068
123,650	-5,446	0,069
123,700	-5,488	0,068
123,750	-5,524	0,069
123,800	-5,561	0,068
123,850	-5,568	0,069
123,900	-5,568	0,068
123,950	-5,568	0,069
124,000	-5,568	0,069
124,050	-5,576	0,069
124,100	-5,581	0,069
124,150	-5,590	0,070
124,200	-5,610	0,068
124,250	-5,624	0,070
124,300	-5,625	0,069
124,350	-5,631	0,070
124,400	-5,643	0,069
124,450	-5,643	0,070
124,500	-5,643	0,069
124,550	-5,643	0,070
124,600	-5,643	0,069
124,650	-5,643	0,070
124,700	-5,643	0,069
124,750	-5,649	0,070
124,800	-5,710	0,069
124,850	-5,779	0,070
124,900	-5,814	0,069
124,950	-5,856	0,070
125,000	-5,870	0,070
125,050	-5,872	0,071
125,100	-5,903	0,070
125,150	-5,920	0,071
125,200	-5,933	0,070
125,250	-5,934	0,071
125,300	-5,934	0,070
125,350	-5,936	0,071
125,400	-5,937	0,070
125,450	-5,936	0,071
125,500	-5,936	0,070
125,550	-5,938	0,071
125,600	-5,944	0,070
125,650	-5,949	0,071
125,700	-5,985	0,070
125,750	-6,005	0,071
125,800	-6,020	0,070
125,850	-6,032	0,071
125,900	-6,047	0,070
125,950	-6,076	0,071
126,000	-6,110	0,070
126,050	-6,161	0,072
126,100	-6,224	0,071
126,150	-6,238	0,072
126,200	-6,244	0,071
126,250	-6,284	0,072
126,300	-6,330	0,071
126,350	-6,367	0,072
126,400	-6,408	0,072
126,450	-6,438	0,072
126,500	-6,442	0,071
126,550	-6,464	0,072
126,600	-6,473	0,072
126,650	-6,499	0,073
126,700	-6,530	0,072
126,750	-6,543	0,073
126,800	-6,590	0,072
126,850	-6,624	0,073
126,900	-6,643	0,072
126,950	-6,653	0,073
127,000	-6,658	0,073
127,050	-6,662	0,073
127,100	-6,663	0,073
127,150	-6,665	0,073
127,200	-6,665	0,072
127,250	-6,666	0,073
127,300	-6,665	0,072
127,350	-6,665	0,074
127,400	-6,665	0,072
127,450	-6,666	0,073
127,500	-6,666	0,072
127,550	-6,666	0,073
127,600	-6,666	0,072
127,650	-6,666	0,073
127,700	-6,666	0,073
127,750	-6,666	0,074
127,800	-6,666	0,073
127,850	-6,666	0,073
127,900	-6,666	0,073
127,950	-6,667	0,073
128,000	-6,666	0,073
128,050	-6,666	0,074
128,100	-6,666	0,073
128,150	-6,666	0,074
128,200	-6,666	0,073
128,250	-6,667	0,074
128,300	-6,666	0,073
128,350	-6,667	0,074
128,400	-6,666	0,073
128,450	-6,667	0,074
128,500	-6,666	0,073
128,550	-6,667	0,074
128,600	-6,666	0,073
128,650	-6,666	0,074
128,700	-6,666	0,073
128,750	-6,667	0,074
128,800	-6,666	0,073
128,850	-6,667	0,074
128,900	-6,666	0,073
128,950	-6,667	0,074
129,000	-6,666	0,073
129,050	-6,667	0,074
129,100	-6,666	0,073
129,150	-6,667	0,074
129,200	-6,666	0,073
129,250	-6,667	0,074
129,300	-6,667	0,073
129,350	-6,667	0,074
129,400	-6,666	0,074
129,450	-6,667	0,074
129,500	-6,666	0,074
129,550	-6,667	0,074
129,600	-6,666	0,073
129,650	-6,667	0,074
129,700	-6,666	0,074
129,750	-6,667	0,075
129,800	-6,667	0,074
129,850	-6,667	0,074
129,900	-6,666	0,074
129,950	-6,667	0,075
130,000	-6,666	0,074
130,050	-6,667	0,074
130,100	-6,666	0,074
130,150	-6,667	0,074
130,200	-6,666	0,074
130,250	-6,667	0,074
130,300	-6,667	0,074
130,350	-6,667	0,074
130,400	-6,667	0,074
130,450	-6,667	0,075
130,500	-6,667	0,074
130,550	-6,667	0,075
130,600	-6,667	0,074
130,650	-6,667	0,075
130,700	-6,667	0,074
130,750	-6,667	0,075
130,800	-6,666	0,074
130,850	-6,667	0,075
130,900	-6,667	0,074
130,950	-6,667	0,075
131,000	-6,667	0,074
131,050	-6,667	0,075
131,100	-6,667	0,074
131,150	-6,667	0,075
131,200	-6,667	0,074
131,250	-6,667	0,075
131,300	-6,667	0,074
131,350	-6,667	0,075
131,400	-6,667	0,074
131,450	-6,667	0,075
131,500	-6,667	0,074
131,550	-6,667	0,075
131,600	-6,667	0,075
131,650	-6,667	0,075
131,700	-6,667	0,075
131,750	-6,667	0,075
131,800	-6,667	0,075
131,850	-6,667	0,075
131,900	-6,667	0,074
131,950	-6,667	0,075
132,000	-6,667	0,074
132,050	-6,667	0,075
132,100	-6,667	0,075
132,150	-6,667	0,075
132,200	-6,667	0,075
132,250	-6,667	0,075
132,300	-6,667	0,075
132,350	-6,667	0,075
132,400	-6,667	0,075
132,450	-6,667	0,075
132,500	-6,667	0,075
132,550	-6,667	0,076
132,600	-6,667	0,075
132,650	-6,667	0,075
132,700	-6,667	0,075
132,750	-6,667	0,075
132,800	-6,667	0,075
132,850	-6,667	0,076
132,900	-6,667	0,075
132,950	-6,667	0,076
133,000	-6,667	0,075
133,050	-6,667	0,076
133,100	-6,667	0,075
133,150	-6,667	0,076
133,200	-6,667	0,075
133,250	-6,668	0,075
133,300	-6,667	0,075
133,350	-6,667	0,076
133,400	-6,667	0,075
133,450	-6,667	0,076
133,500	-6,667	0,075
133,550	-6,665	0,076
133,600	-6,614	0,075
133,650	-6,541	0,076
133,700	-6,461	0,075
133,750	-6,409	0,075
133,800	-6,388	0,075
133,850	-6,367	0,075
133,900	-6,367	0,075
133,950	-6,367	0,075
134,000	-6,367	0,075
134,050	-6,367	0,075
134,100	-6,365	0,075
134,150	-6,365	0,075
134,200	-6,364	0,075
134,250	-6,334	0,075
134,300	-6,331	0,075
134,350	-6,317	0,076
134,400	-6,303	0,075
134,450	-6,265	0,075
134,500	-6,193	0,075
134,550	-6,174	0,075
134,600	-6,137	0,075
134,650	-6,123	0,075
134,700	-6,099	0,075
134,750	-6,082	0,075
134,800	-6,058	0,074
134,850	-6,041	0,075
134,900	-6,017	0,074
134,950	-6,013	0,075
135,000	-5,989	0,075
135,050	-5,963	0,075
135,100	-5,928	0,074
135,150	-5,912	0,075
135,200	-5,908	0,074
135,250	-5,891	0,075
135,300	-5,874	0,074
135,350	-5,853	0,075
135,400	-5,825	0,074
135,450	-5,804	0,075
135,500	-5,750	0,074
135,550	-5,707	0,075
135,600	-5,685	0,074
135,650	-5,674	0,074
135,700	-5,674	0,074
135,750	-5,674	0,074
135,800	-5,674	0,074
135,850	-5,668	0,074
135,900	-5,653	0,074
135,950	-5,645	0,074
136,000	-5,625	0,074
136,050	-5,624	0,074
136,100	-5,601	0,074
136,150	-5,598	0,074
136,200	-5,560	0,074
136,250	-5,526	0,074
136,300	-5,496	0,074
136,350	-5,491	0,074
136,400	-5,492	0,074
136,450	-5,492	0,074
136,500	-5,492	0,074
136,550	-5,492	0,074
136,600	-5,492	0,074
136,650	-5,489	0,074
136,700	-5,465	0,074
136,750	-5,445	0,074
136,800	-5,420	0,073
136,850	-5,402	0,074
136,900	-5,367	0,073
136,950	-5,291	0,074
137,000	-5,249	0,074
137,050	-5,213	0,074
137,100	-5,161	0,073
137,150	-5,116	0,074
137,200	-5,085	0,073
137,250	-5,084	0,074
137,300	-5,084	0,073
137,350	-5,078	0,073
137,400	-5,050	0,073
137,450	-5,023	0,074
137,500	-5,012	0,073
137,550	-4,993	0,073
137,600	-4,949	0,073
137,650	-4,908	0,073
137,700	-4,864	0,073
137,750	-4,815	0,073
137,800	-4,784	0,073
137,850	-4,771	0,073
137,900	-4,771	0,073
137,950	-4,763	0,073
138,000	-4,749	0,073
138,050	-4,724	0,073
138,100	-4,700	0,072
138,150	-4,683	0,073
138,200	-4,660	0,073
138,250	-4,640	0,073
138,300	-4,623	0,073
138,350	-4,605	0,073
138,400	-4,594	0,072
138,450	-4,579	0,073
138,500	-4,566	0,073
138,550	-4,563	0,073
138,600	-4,550	0,072
138,650	-4,538	0,073
138,700	-4,524	0,073
138,750	-4,521	0,073
138,800	-4,521	0,072
138,850	-4,521	0,073
138,900	-4,520	0,073
138,950	-4,521	0,073
139,000	-4,518	0,072
139,050	-4,518	0,073
139,100	-4,518	0,072
139,150	-4,517	0,073
139,200	-4,509	0,072
139,250	-4,476	0,073
139,300	-4,443	0,072
139,350	-4,422	0,072
139,400	-4,398	0,073
139,450	-4,365	0,073
139,500	-4,336	0,072
139,550	-4,301	0,072
139,600	-4,281	0,072
139,650	-4,263	0,072
139,700	-4,243	0,072
139,750	-4,226	0,072
139,800	-4,200	0,072
139,850	-4,178	0,072
139,900	-4,147	0,072
139,950	-4,101	0,072
140,000	-4,047	0,072
140,050	-4,013	0,072
140,100	-3,974	0,072
140,150	-3,965	0,072
140,200	-3,965	0,071
140,250	-3,965	0,072
140,300	-3,965	0,071
140,350	-3,965	0,072
140,400	-3,965	0,072
140,450	-3,965	0,072
140,500	-3,964	0,072
140,550	-3,940	0,072
140,600	-3,895	0,072
140,650	-3,851	0,072
140,700	-3,794	0,071
140,750	-3,728	0,072
140,800	-3,710	0,071
140,850	-3,710	0,071
140,900	-3,710	0,071
140,950	-3,710	0,072
141,000	-3,710	0,071
141,050	-3,710	0,071
141,100	-3,707	0,072
141,150	-3,656	0,072
141,200	-3,600	0,071
141,250	-3,546	0,071
141,300	-3,494	0,071
141,350	-3,445	0,071
141,400	-3,405	0,071
141,450	-3,366	0,071
141,500	-3,326	0,071
141,550	-3,311	0,071
141,600	-3,304	0,070
141,650	-3,304	0,071
141,700	-3,304	0,071
141,750	-3,304	0,071
141,800	-3,304	0,071
141,850	-3,304	0,071
141,900	-3,304	0,071
141,950	-3,304	0,071
142,000	-3,304	0,071
142,050	-3,303	0,071
142,100	-3,304	0,071
142,150	-3,286	0,071
142,200	-3,190	0,071
142,250	-3,111	0,071
142,300	-3,061	0,071
142,350	-3,038	0,071
142,400	-3,037	0,070
142,450	-3,037	0,071
142,500	-3,002	0,070
142,550	-2,953	0,070
142,600	-2,908	0,070
142,650	-2,876	0,070
142,700	-2,814	0,070
142,750	-2,677	0,070
142,800	-2,507	0,070
142,850	-2,432	0,069
142,900	-2,410	0,069
142,950	-2,409	0,070
143,000	-2,409	0,069
143,050	-2,409	0,069
143,100	-2,409	0,069
143,150	-2,409	0,070
143,200	-2,410	0,069
143,250	-2,408	0,069
143,300	-2,343	0,069
143,350	-2,238	0,069
143,400	-2,165	0,068
143,450	-2,101	0,069
143,500	-2,069	0,069
143,550	-2,057	0,069
143,600	-2,043	0,068
143,650	-2,038	0,069
143,700	-2,020	0,069
143,750	-2,010	0,069
143,800	-1,983	0,069
143,850	-1,949	0,069
143,900	-1,918	0,068
143,950	-1,886	0,069
144,000	-1,854	0,068
144,050	-1,822	0,068
144,100	-1,816	0,068
144,150	-1,759	0,068
144,200	-1,730	0,068
144,250	-1,726	0,068
144,300	-1,708	0,068
144,350	-1,690	0,068
144,400	-1,664	0,068
144,450	-1,624	0,068
144,500	-1,583	0,068
144,550	-1,537	0,068
144,600	-1,486	0,068
144,650	-1,441	0,068
144,700	-1,438	0,068
144,750	-1,438	0,067
144,800	-1,438	0,068
144,850	-1,437	0,068
144,900	-1,435	0,067
144,950	-1,416	0,068
145,000	-1,348	0,067
145,050	-1,279	0,067
145,100	-1,240	0,068
145,150	-1,168	0,067
145,200	-1,073	0,067
145,250	-0,958	0,067
145,300	-0,889	0,067
145,350	-0,892	0,067
145,400	-0,890	0,067
145,450	-0,889	0,067
145,500	-0,889	0,067
145,550	-0,889	0,067
145,600	-0,889	0,066
145,650	-0,889	0,067
145,700	-0,889	0,067
145,750	-0,887	0,067
145,800	-0,884	0,067
145,850	-0,833	0,067
145,900	-0,736	0,067
145,950	-0,687	0,067
146,000	-0,681	0,066
146,050	-0,656	0,066
146,100	-0,599	0,066
146,150	-0,499	0,066
146,200	-0,407	0,066
146,250	-0,376	0,066
146,300	-0,358	0,066
146,350	-0,334	0,066
146,400	-0,333	0,066
146,450	-0,332	0,066
146,500	-0,328	0,066
146,550	-0,318	0,066
146,600	-0,301	0,066
146,650	-0,270	0,066
146,700	-0,210	0,066
146,750	-0,152	0,066
146,800	-0,119	0,066
146,850	-0,077	0,066
146,900	-0,029	0,066
146,950	-0,014	0,065
147,000	-0,014	0,065
147,050	-0,012	0,065
147,100	-0,010	0,066
147,150	-0,009	0,066
147,200	-0,009	0,066
147,250	-0,009	0,066
147,300	-0,009	0,066
147,350	-0,010	0,066
147,400	-0,011	0,066
147,450	-0,014	0,066
147,500	-0,014	0,066
147,550	-0,014	0,066
147,600	-0,014	0,066
147,650	-0,014	0,066
147,700	-0,014	0,066
147,750	-0,014	0,066
147,800	-0,014	0,066
147,850	-0,014	0,066
147,900	-0,014	0,066
147,950	-0,014	0,066
148,000	-0,014	0,066
148,050	-0,014	0,066
148,100	-0,014	0,066
148,150	-0,014	0,066
148,200	-0,014	0,066
148,250	-0,014	0,066
148,300	-0,014	0,066
148,350	-0,014	0,066
148,400	-0,014	0,066
148,450	-0,014	0,066
148,500	-0,014	0,066
148,550	-0,014	0,066
148,600	-0,014	0,066
148,650	-0,014	0,066
148,700	-0,014	0,066
148,750	-0,014	0,066
148,800	-0,014	0,066
148,850	-0,014	0,066
148,900	-0,014	0,067
148,950	-0,014	0,066
149,000	-0,014	0,066
149,050	-0,014	0,066
149,100	-0,014	0,067
149,150	-0,014	0,066
149,200	-0,014	0,067
149,250	-0,014	0,167
149,300	-0,014	0,221
149,350	-0,014	0,221
149,400	-0,014	0,222
149,450	-0,014	0,221
149,500	-0,014	0,222
149,550	-0,013	0,222
149,600	-0,012	0,222
149,650	-0,010	0,222
149,700	-0,009	0,222
149,750	-0,007	0,221
149,800	-0,006	0,222
149,850	-0,005	0,221
149,900	-0,005	0,222
149,950	-0,004	0,222
150,000	-0,003	0,222
150,050	-0,002	0,222
